#WAVELENGTH FLUX ERROR MASK
       10193.918       383.58585       4473.2712       0
       10216.680       801.61847       3927.5615       0
       10239.442       3457.0588       3458.4619       0
       10262.204      -2603.6300       2897.2671       0
       10284.966      -309.54727       2550.7050       0
       10307.728      -420.56177       2200.1751       0
       10330.490       302.69660       2017.3756       0
       10353.252       402.91242       1784.3305       0
       10376.014       1652.6749       1679.2324       0
       10398.776      -229.86986       1485.9159       0
       10421.538       513.57084       1373.8781       0
       10444.300      -713.97186       1023.3185       0
       10467.062       324.64625       1027.0273       0
       10489.825      -767.91360       743.69974       0
       10512.587      -358.44187       724.50331       0
       10535.349       422.00348       624.71137       0
       10558.111       29.243097       547.29988       0
       10580.873       543.32463       475.96779       0
       10603.635      -180.44528       371.07940       0
       10626.397       249.58262       384.12493       0
       10649.159       95.987625       354.94429       0
       10671.921       99.903832       305.48838       0
       10694.683       414.74459       272.90345       0
       10717.445       273.46386       228.12793       0
       10740.207       44.014210       191.08794       0
       10762.969       94.518647       158.11266       0
       10785.731       127.36541       135.75328       0
       10808.493       131.77154       112.84715       0
       10831.255       114.99316       100.22709       0
       10854.017       123.61846       86.681750       0
       10876.779       211.16603       81.397183       0
       10899.541      0.64461972       50.317154       0
       10922.303       157.81448       69.115733       0
       10945.065       153.13561       63.280061       0
       10967.827       206.74905       60.761427       0
       10990.590       122.90046       55.088835       0
       11013.352       133.65967       52.632868       1
       11036.114       151.15728       48.310464       1
       11058.876       126.25311       46.257223       1
       11081.638       159.31675       43.155694       1
       11104.400       156.74584       42.208446       1
       11127.162       164.50148       39.879835       1
       11149.924       135.13586       39.510525       1
       11172.686       157.85136       37.913051       1
       11195.448       116.46163       37.764782       1
       11218.210       162.41442       36.865237       1
       11240.972       142.61226       9917445.0       1
       11263.734       133.63096       35.920388       1
       11286.496       118.49399       36.316809       1
       11309.258       147.74558       35.287273       1
       11332.020       176.96254       35.956432       1
       11354.782       163.11489       34.625534       1
       11377.544       137.72968       35.042115       1
       11400.306       149.37531       33.880565       1
       11423.068       133.15515       34.387053       1
       11445.830       119.18570       33.198842       1
       11468.592       168.63775       34.045341       1
       11491.355       151.66735       33.148083       1
       11514.117       140.54203       33.625492       1
       11536.879       114.25451       28.527876       1
       11559.641       142.45204       33.423917       1
       11582.403       140.77053       32.632591       1
       11605.165       143.30027       33.168419       1
       11627.927       134.97347       31.926434       1
       11650.689       169.28531       32.336256       1
       11673.451       144.01206       31.294793       1
       11696.213       172.06820       7572349.1       1
       11718.975       155.42841       30.695236       1
       11741.737       180.01004       31.140938       1
       11764.499       159.50124       30.221042       1
       11787.261       144.71937       29.991312       1
       11810.023       150.20420       29.435456       1
       11832.785       145.74849       29.398877       1
       11855.547       159.13353       28.877568       1
       11878.309       153.01318       29.109489       1
       11901.071       143.48946       28.408292       1
       11923.833       144.12690       28.450967       1
       11946.595       168.98881       28.072815       1
       11969.357       136.64202       28.157437       1
       11992.120       175.76214       27.854012       1
       12014.882       163.09770       27.880940       1
       12037.644       166.15808       27.446837       1
       12060.406       175.05363       27.640800       1
       12083.168       123.56322       24.064806       1
       12105.930       145.02254       27.022605       1
       12128.692       149.59181       26.600890       1
       12151.454       106.79545       24.289341       1
       12174.216       146.09227       26.165204       1
       12196.978       137.16232       26.453488       1
       12219.740       138.07062       26.038463       1
       12242.502       137.87173       26.197937       1
       12265.264       154.27090       25.839349       1
       12288.026       155.95475       25.989367       1
       12310.788       127.49075       25.238678       1
       12333.550       166.97635       25.998467       1
       12356.312       159.54854       25.336575       1
       12379.074       148.51179       25.997987       1
       12401.836       168.35606       25.126456       1
       12424.598       173.92552       25.965128       1
       12447.360       186.09486       25.146512       1
       12470.122       161.50665       25.716667       1
       12492.885       182.84080       25.101437       1
       12515.647       195.00040       25.965239       1
       12538.409       186.35941       22.982837       1
       12561.171       251.67975       26.909828       1
       12583.933       510.20311       28.706840       1
       12606.695       625.57323       32.630891       1
       12629.457       992.88411       35.778030       1
       12652.219       1427.2753       39.875540       1
       12674.981       919.26518       34.276059       1
       12697.743       782.47296       32.966592       1
       12720.505       640.16592       30.517663       1
       12743.267       722.67403       30.123878       1
       12766.029       355.93291       25.822142       1
       12788.791       262.54317       25.183198       1
       12811.553       214.14630       23.945547       1
       12834.315       187.46602       24.274323       1
       12857.077       177.75413       23.286325       1
       12879.839       154.66874       23.906902       1
       12902.601       169.24050       22.986306       1
       12925.363       148.38897       23.510163       1
       12948.125       158.85703       22.771153       1
       12970.887       172.49192       23.393146       1
       12993.650       159.68205       22.431077       1
       13016.412       159.93476       23.050085       1
       13039.174       152.82712       22.153180       1
       13061.936       114.22930       19.269382       1
       13084.698       146.92414       21.920155       1
       13107.460       133.24680       22.168818       1
       13130.222       167.18901       21.822823       1
       13152.984       152.74800       22.191138       1
       13175.746       143.55485       21.428853       1
       13198.508       158.06134       21.806829       1
       13221.270       135.41235       21.039260       1
       13244.032       157.88592       21.579175       1
       13266.794       155.28089       21.071300       1
       13289.556       158.35179       21.579294       1
       13312.318       133.42745       20.637913       1
       13335.080       138.84747       21.362252       1
       13357.842       145.62295       20.830815       1
       13380.604       154.02802       21.350549       1
       13403.366       121.10151       20.518716       1
       13426.128       144.11038       21.037425       1
       13448.890       143.94056       20.527689       1
       13471.653       125.28008       20.585085       1
       13494.415       149.32694       20.319888       1
       13517.177       131.30257       20.617249       1
       13539.939       157.31551       20.322927       1
       13562.701       160.96769       20.697613       1
       13585.463       157.55684       20.314861       1
       13608.225       159.74662       20.756138       1
       13630.987       181.90893       20.475995       1
       13653.749       163.14106       20.820125       1
       13676.511       161.09733       20.348527       1
       13699.273       173.69997       20.878329       1
       13722.035       190.01067       20.523763       1
       13744.797       173.09483       20.825201       1
       13767.559       177.60033       20.421158       1
       13790.321       176.56457       20.900784       1
       13813.083       159.78250       20.323315       1
       13835.845       140.84787       20.615182       1
       13858.607       160.31337       20.031633       1
       13881.369       156.67442       20.593829       1
       13904.131       172.05857       20.239781       1
       13926.893       135.01120       20.350974       1
       13949.655       127.55062       19.908477       1
       13972.418       154.38549       20.350065       1
       13995.180       142.73989       19.589544       1
       14017.942       134.10717       19.875124       1
       14040.704       133.43003       19.430470       1
       14063.466       139.42805       19.978175       1
       14086.228       127.25923       19.306331       1
       14108.990       140.32026       19.824453       1
       14131.752       142.14899       19.373669       1
       14154.514       118.59562       19.327873       1
       14177.276       146.81196       19.389795       1
       14200.038       138.65190       19.308867       1
       14222.800       140.11934       19.239296       1
       14245.562       90.523559       16.496513       1
       14268.324       148.05919       19.168458       1
       14291.086       137.69681       19.421467       1
       14313.848       144.77460       18.805662       1
       14336.610       147.85907       19.302325       1
       14359.372       146.97797       18.874501       1
       14382.134       119.46331       18.928189       1
       14404.896       141.20336       18.857026       1
       14427.658       129.34429       18.968028       1
       14450.420       140.41676       18.489333       1
       14473.183       139.72686       19.160050       1
       14495.945       148.50682       18.746768       1
       14518.707       134.21076       19.313827       1
       14541.469       138.09510       18.801124       1
       14564.231       138.49245       19.311037       1
       14586.993       132.84170       18.776131       1
       14609.755       135.58770       19.088023       1
       14632.517       134.04769       18.769463       1
       14655.279       123.88984       19.033375       1
       14678.041       135.15892       18.775359       1
       14700.803       145.17211       19.425871       1
       14723.565       151.05910       18.970445       1
       14746.327       142.36261       19.416656       1
       14769.089       125.94234       18.725580       1
       14791.851       125.16356       19.292845       1
       14814.613       117.39829       18.677944       1
       14837.375       141.26039       19.251883       1
       14860.137       139.25012       18.633574       1
       14882.899       131.62820       19.139215       1
       14905.661       125.21974       18.310992       1
       14928.423       120.82733       18.868613       1
       14951.185       135.94699       18.380394       1
       14973.948       126.46148       18.888477       1
       14996.710       124.90209       18.245259       1
       15019.472       127.81082       18.839042       1
       15042.234       129.34592       18.245921       1
       15064.996       126.62973       18.812288       1
       15087.758       128.45523       18.228790       1
       15110.520       128.07144       18.832668       1
       15133.282       122.47136       18.074095       1
       15156.044       132.62745       18.374162       1
       15178.806       141.22256       18.223462       1
       15201.568       128.77657       18.283367       1
       15224.330       149.83081       18.166676       1
       15247.092       141.00451       18.291536       1
       15269.854       145.49174       18.169117       1
       15292.616       138.19402       18.226542       1
       15315.378       120.77609       17.965353       1
       15338.140       141.84297       18.345183       1
       15360.902       139.09748       18.162095       1
       15383.664       132.61329       18.362312       1
       15406.426       141.90413       18.172974       1
       15429.188       127.53524       18.312823       1
       15451.950       131.61666       18.234051       1
       15474.713       130.77326       18.374801       1
       15497.475       133.46811       18.230760       1
       15520.237       147.76813       18.513521       1
       15542.999       134.31240       18.184059       1
       15565.761       137.64182       18.349067       1
       15588.523       143.47119       18.324507       1
       15611.285       150.88794       18.576766       1
       15634.047       151.91918       18.381319       1
       15656.809       160.30866       18.772456       1
       15679.571       147.37093       18.172800       1
       15702.333       127.85902       18.088984       1
       15725.095       134.36292       18.019219       1
       15747.857       158.60657       18.404308       1
       15770.619       138.45035       18.002821       1
       15793.381       142.70032       18.242005       1
       15816.143       129.48029       17.896302       1
       15838.905       128.29814       18.355746       1
       15861.667       140.65282       18.034589       1
       15884.429       138.92796       18.504917       1
       15907.191       131.75826       18.142041       1
       15929.953       107.34403       18.276797       1
       15952.715       112.54512       17.993114       1
       15975.478       132.83969       18.514641       1
       15998.240       119.29031       18.004046       1
       16021.002       121.96412       18.357840       1
       16043.764       122.49148       18.041789       1
       16066.526       125.55112       18.523710       1
       16089.288       115.86845       18.039017       1
       16112.050       126.21439       18.620474       1
       16134.812       94.511690       15.874272       1
       16157.574       121.21578       18.471031       1
       16180.336       108.88959       18.189889       1
       16203.098       133.35197       18.889385       1
       16225.860       121.11090       18.408313       1
       16248.622       124.36878       20.035591       1
       16271.384       98.363091       16.178886       1
       16294.146       124.59387       19.057097       1
       16316.908       116.46460       18.445082       1
       16339.670       114.54492       19.001193       1
       16362.432       103.93854       18.540992       1
       16385.194       125.73529       19.108875       1
       16407.956       112.57211       18.666746       1
       16430.718       110.50493       19.165259       1
       16453.481       112.17969       18.756749       1
       16476.243       109.98779       19.437336       1
       16499.005       132.21944       19.420319       1
       16521.767       116.81663       20.519171       1
       16544.529       118.11168       20.465973       1
       16567.291       118.84382       21.750308       1
       16590.053       113.06249       22.359919       1
       16612.815       146.51621       24.737432       1
       16635.577       93.053364       25.341042       1
       16658.339       115.80000       29.868699       1
       16681.101       105.40261       30.383469       1
       16703.863       120.96602       36.434666       1
       16726.625       106.29059       37.945794       1
       16749.387       142.18900       44.226120       1
       16772.149       148.92153       49.064567       0
       16794.911       85.018373       55.989021       0
       16817.673       144.23684       63.297652       0
       16840.435       151.67119       72.883226       0
       16863.197       175.28401       79.735497       0
       16885.959       129.83441       91.244451       0
       16908.721       82.955479       98.722863       0
       16931.483       241.59385       113.49203       0
       16954.246       238.58458       123.65874       0
       16977.008       109.57752       140.22995       0
       16999.770       87.974731       153.03382       0
       17022.532       51.107329       172.00236       0
       17045.294       248.98806       188.65271       0
       17068.056       253.03444       211.65196       0
       17090.818       130.80533       232.98840       0
       17113.580       236.40697       270.97791       0
       17136.342       122.04838       302.39925       0
       17159.104       255.07227       354.64414       0
       17181.866       199.89010       400.78425       0
       17204.628       340.69787       465.15311       0
       17227.390       194.21461       514.84887       0
       17250.152      -101.07709       525.11619       0
       17272.914       376.45293       640.38947       0
