#WAVELENGTH FLUX ERROR MASK
       7543.7762       4261.3964       250.81612       0
       7555.9709      -5082.7186       241.85984       0
       7568.1656       536.41614       189.47835       0
       7580.3603       4063.9789       213.16431       0
       7592.5549       1519.0285       152.38039       0
       7604.7496       1112.6599       175.08856       0
       7616.9443      -1518.6399       127.48921       0
       7629.1390       996.65330       189.47401       0
       7641.3337       20.265282       115.42746       0
       7653.5283       31.341487       127.50733       0
       7665.7230      -700.14496       111.46464       0
       7677.9177       318.95534       106.63210       0
       7690.1124      -696.39156       77.343131       0
       7702.3070       748.14717       89.251907       0
       7714.5017       81.349018       66.008211       0
       7726.6964       732.67920       78.169700       0
       7738.8911       557.12022       58.979691       0
       7751.0857       291.38779       70.127793       0
       7763.2804       326.95539       53.807648       0
       7775.4751       210.24363       64.645151       0
       7787.6698       351.08329       52.569216       0
       7799.8644       222.31540       52.646867       0
       7812.0591       149.39294       44.724974       0
       7824.2538       217.84839       52.975559       0
       7836.4485       446.19340       40.674693       0
       7848.6431       39.549574       47.616440       0
       7860.8378       168.31271       36.423014       0
       7873.0325       183.52054       37.155130       0
       7885.2272       110.12902       33.372580       0
       7897.4218       272.13940       40.862050       0
       7909.6165       33.189907       31.130418       0
       7921.8112       203.13478       38.256080       0
       7934.0059       137.98056       29.783393       0
       7946.2006       222.83613       36.461407       0
       7958.3952       60.771157       34.098314       0
       7970.5899       107.38131       34.769385       0
       7982.7846       148.61810       27.413000       0
       7994.9793       48.975940       33.421965       0
       8007.1739       34.615254       31.402441       0
       8019.3686       64.693966       32.267079       0
       8031.5633       63.039475       25.585624       0
       8043.7580       149.40978       31.746950       0
       8055.9526       187.89295       26.580064       0
       8068.1473       145.62067       31.296515       0
       8080.3420       135.23918       27.434951       0
       8092.5367       160.82290       30.750186       0
       8104.7313       244.33836       25.822564       0
       8116.9260       201.89232       30.581830       0
       8129.1207       144.83666       25.164630       0
       8141.3154       106.05662       29.916845       0
       8153.5100       97.889570       24.661526       1
       8165.7047       173.67275       29.363157       1
       8177.8994       93.145530       23.166054       1
       8190.0941       187.56408       29.060078       1
       8202.2887       141.20095       31.653031       1
       8214.4834       31.386808       24.910904       1
       8226.6781       135.29779       22.328944       1
       8238.8728       105.08675       27.421633       1
       8251.0675       102.06329       21.919332       1
       8263.2621       95.123879       26.898545       1
       8275.4568       115.67556       21.155369       1
       8287.6515       201.60950       30.151565       1
       8299.8462       87.608239       20.676855       1
       8312.0408       108.71831       25.741272       1
       8324.2355       90.759799       20.216898       1
       8336.4302       184.44598       24.945980       1
       8348.6249       92.461006       19.641909       1
       8360.8195       157.87595       24.491632       1
       8373.0142       95.713699       19.379860       1
       8385.2089       97.026884       24.100500       1
       8397.4036       105.54426       22.394264       1
       8409.5982       95.324530       23.760105       1
       8421.7929       114.87170       18.913295       1
       8433.9876       144.05500       23.441182       1
       8446.1823       175.99912       18.768010       1
       8458.3769       41.555087       17.679919       1
       8470.5716       151.43694       21.452786       1
       8482.7663       149.14712       22.712929       1
       8494.9610       139.45421       19.737588       1
       8507.1556       134.86151       22.548501       1
       8519.3503       106.04212       17.889804       1
       8531.5450       106.34454       22.276878       1
       8543.7397       136.03557       17.822059       1
       8555.9343       166.67111       22.308784       1
       8568.1290       67.457267       17.686375       1
       8580.3237       148.57471       22.497692       1
       8592.5184       151.01871       17.823723       1
       8604.7131       176.75246       22.498715       1
       8616.9077       115.20056       17.716436       1
       8629.1024       142.61859       22.306271       1
       8641.2971       137.37364       22.394661       1
       8653.4918       145.04435       22.070662       1
       8665.6864       124.80493       17.563429       1
       8677.8811       165.84428       21.810409       1
       8690.0758       158.58567       17.277057       1
       8702.2705       93.491985       21.316153       1
       8714.4651       111.70794       16.911051       1
       8726.6598       139.57920       21.089724       1
       8738.8545       113.24777       16.644011       1
       8751.0492       108.91757       20.635638       1
       8763.2438       107.00042       16.415627       1
       8775.4385       83.625976       20.373628       1
       8787.6332       127.22368       20.678570       1
       8799.8279       134.98293       20.377665       1
       8812.0225       104.50781       16.138670       1
       8824.2172       137.17344       23.909343       1
       8836.4119       121.29716       16.031427       1
       8848.6066       58.968350       16.869580       1
       8860.8012       103.40094       16.677187       1
       8872.9959       129.72711       7468034.4       1
       8885.1906       116.46514       15.684286       1
       8897.3853       76.458977       19.490414       1
       8909.5800       124.69346       15.626736       1
       8921.7746       144.43405       19.531417       1
       8933.9693       119.93428       15.426656       1
       8946.1640       116.43015       19.221327       1
       8958.3587       122.31626       15.301398       1
       8970.5533       123.35231       19.147597       1
       8982.7480       101.29002       15.067201       1
       8994.9427       98.254504       19.032646       1
       9007.1374       120.06535       18.182267       1
       9019.3320       150.99912       18.967603       1
       9031.5267       157.45862       15.146406       1
       9043.7214       105.07361       18.538667       1
       9055.9161       155.30402       14.998831       1
       9068.1107       126.72853       18.539798       1
       9080.3054       145.69435       14.838609       1
       9092.5001       153.58446       18.438784       1
       9104.6948       137.21002       14.664830       1
       9116.8894       151.83950       18.235385       1
       9129.0841       158.48541       14.561283       1
       9141.2788       176.23164       18.158855       1
       9153.4735       143.04991       16.878531       1
       9165.6681       131.61176       17.825808       1
       9177.8628       153.31162       14.997526       1
       9190.0575       122.69451       17.633014       1
       9202.2522       148.27566       14.188073       1
       9214.4469       107.12338       17.518692       1
       9226.6415       136.18349       14.073160       1
       9238.8362       144.45849       17.470044       1
       9251.0309       171.92082       14.084968       1
       9263.2256       143.32569       17.325902       1
       9275.4202       136.34783       14.066318       1
       9287.6149       138.83796       17.674639       1
       9299.8096       147.60545       14.071503       1
       9312.0043       140.38910       17.528827       1
       9324.1989       151.53486       13.999294       1
       9336.3936       118.68604       17.439212       1
       9348.5883       159.22645       14.005581       1
       9360.7830       128.27098       17.469350       1
       9372.9776       152.12452       13.894457       1
       9385.1723       161.84872       17.532358       1
       9397.3670       165.30833       16.845502       1
       9409.5617       152.70725       19.698409       1
       9421.7563       151.04111       14.896428       1
       9433.9510       172.10226       19.952663       1
       9446.1457       151.14750       13.646316       1
       9458.3404       151.64792       17.077807       1
       9470.5350       141.04462       13.545871       1
       9482.7297       151.57259       17.053594       1
       9494.9244       166.97512       14.177210       1
       9507.1191       120.50612       16.473385       1
       9519.3138       145.61057       13.347046       1
       9531.5084       111.37356       16.552569       1
       9543.7031       147.45508       13.264765       1
       9555.8978       121.33007       16.455559       1
       9568.0925       105.50106       13.069244       1
       9580.2871       120.03450       16.446898       1
       9592.4818       136.66954       13.065044       1
       9604.6765       150.24312       16.452388       1
       9616.8712       126.13365       13.032362       1
       9629.0658       164.24230       16.466098       1
       9641.2605       138.00481       12.980324       1
       9653.4552       128.44514       16.280126       1
       9665.6499       127.24698       12.956458       1
       9677.8445       104.43606       13.906171       1
       9690.0392       136.13279       12.881275       1
       9702.2339       147.84398       16.205274       1
       9714.4286       159.59359       12.954511       1
       9726.6232       163.32661       16.110363       1
       9738.8179       148.30482       13.671946       1
       9751.0126       122.19528       15.884155       1
       9763.2073       139.18146       12.708373       1
       9775.4019       146.14098       15.979721       1
       9787.5966       149.84143       12.705368       1
       9799.7913       145.13998       15.862518       1
       9811.9860       140.18282       12.746468       1
       9824.1807       132.15457       15.708229       1
       9836.3753       142.44499       12.644839       1
       9848.5700       115.72641       15.712489       1
       9860.7647       149.56222       12.647606       1
       9872.9594       127.91815       15.704217       1
       9885.1540       137.94255       12.565854       1
       9897.3487       147.62308       15.715150       1
       9909.5434       135.91703       12.484949       1
       9921.7381       63.964412       13.643341       1
       9933.9327       129.81231       12.413073       1
       9946.1274       136.38730       15.577496       1
       9958.3221       125.61959       12.333925       1
       9970.5168       144.44707       15.673614       1
       9982.7114       134.15743       12.361755       1
       9994.9061       156.18481       15.642857       1
       10007.101       119.26083       12.284777       1
       10019.295       110.62106       14.124791       1
       10031.490       152.94174       12.425252       1
       10043.685       128.35808       15.481009       1
       10055.879       133.81580       12.263073       1
       10068.074       93.195064       13.963002       1
       10080.269       132.63793       12.343467       1
       10092.464       127.97111       15.442984       1
       10104.658       135.94948       12.255983       1
       10116.853       120.54477       15.420676       1
       10129.048       127.95783       12.200126       1
       10141.242       124.16685       15.299290       1
       10153.437       136.54111       12.186352       1
       10165.632       145.08393       15.390620       1
       10177.826       123.26019       12.126323       1
       10190.021       165.76363       15.406543       1
       10202.216       136.41756       11.869944       1
       10214.410       131.60992       14.822596       1
       10226.605       160.29113       11.916167       1
       10238.800       152.74098       14.832663       1
       10250.994       135.89321       11.806069       1
       10263.189       167.28391       14.762474       1
       10275.384       147.01551       12.428815       1
       10287.578       144.19112       14.797504       1
       10299.773       153.31040       13.992604       1
       10311.968       140.43891       14.769417       1
       10324.162       142.72687       14.734342       1
       10336.357       158.18214       14.752424       1
       10348.552       152.67251       12.336416       1
       10360.746       165.69997       14.755409       1
       10372.941       162.05232       11.782864       1
       10385.136       146.52410       14.558120       1
       10397.330       150.02613       11.878366       1
       10409.525       158.45148       14.685074       1
       10421.720       146.38002       11.986395       1
       10433.914       125.23542       14.608316       1
       10446.109       139.18437       11.907984       1
       10458.304       106.12624       14.538177       1
       10470.498       116.51612       11.630438       1
       10482.693       121.69369       14.616349       1
       10494.888       114.06243       11.668842       1
       10507.083       125.55766       14.639161       1
       10519.277       122.74293       11.698965       1
       10531.472       129.78120       14.664491       1
       10543.667       128.23074       11.697182       1
       10555.861       120.63073       14.610663       1
       10568.056       123.87787       15.279849       1
       10580.251       109.94478       14.458050       1
       10592.445       131.66965       11.606687       1
       10604.640       106.54668       14.396009       1
       10616.835       114.02874       11.477640       1
       10629.029       121.04797       14.431537       1
       10641.224       106.81192       11.602809       1
       10653.419       135.39897       14.412526       1
       10665.613       117.05997       11.409235       1
       10677.808       136.05538       14.492435       1
       10690.003       108.48976       11.427533       1
       10702.197       120.80002       14.301610       1
       10714.392       116.13083       11.419906       1
       10726.587       120.06975       14.320783       1
       10738.781       130.11685       11.506304       1
       10750.976       121.95201       14.360982       1
       10763.171       105.71539       11.389967       1
       10775.365       111.91916       14.258825       1
       10787.560       137.24186       11.484745       1
       10799.755       124.53198       16.834527       1
       10811.949       119.42564       11.388475       1
       10824.144       107.77199       14.127116       1
       10836.339       119.50798       11.341534       1
       10848.533       128.01552       14.238772       1
       10860.728       129.21094       11.331330       1
       10872.923       134.35910       14.257412       1
       10885.117       119.71154       11.350031       1
       10897.312       113.84863       14.136370       1
       10909.507       140.62226       11.314343       1
       10921.701       154.24089       14.237815       1
       10933.896       167.23557       11.414330       1
       10946.091       133.94749       14.096533       1
       10958.286       162.67411       11.396210       1
       10970.480       150.62120       14.131075       1
       10982.675       155.01023       11.359218       1
       10994.870       140.12943       14.086524       1
       11007.064       137.02485       11.288971       1
       11019.259       132.07061       14.073778       1
       11031.454       145.21903       11.305236       1
       11043.648       158.47519       14.213471       1
       11055.843       152.27033       11.322967       1
       11068.038       134.30114       14.115552       1
       11080.232       138.90153       11.318603       1
       11092.427       136.98910       14.102060       1
       11104.622       137.47710       11.296171       1
       11116.816       149.39615       14.087420       1
       11129.011       133.35303       11.899029       1
       11141.206       137.13942       14.384038       1
       11153.400       140.12851       11.475304       1
       11165.595       140.03865       14.428193       1
       11177.790       150.55101       11.540618       1
       11189.984       131.24188       14.387592       1
       11202.179       136.48771       11.450390       0
       11214.374       122.16795       14.297453       0
       11226.568       114.17653       11.409291       0
       11238.763       129.03914       14.363291       0
       11250.958       139.97496       11.511360       0
       11263.152       142.10223       14.452753       0
       11275.347       148.97551       12.308542       0
       11287.542       136.07241       18.705111       0
       11299.736       136.40159       12.126013       0
       11311.931       175.78229       18.188874       0
       11324.126       144.90351       13.088567       0
       11336.320       148.96203       17.095681       0
       11348.515       142.88714       14.369529       0
       11360.710       157.14455       19.153051       0
       11372.905       121.33850       16.094465       0
       11385.099       109.88131       21.381397       0
       11397.294       146.72634       18.281940       0
       11409.489       180.94493       24.389842       0
       11421.683       201.27481       20.536748       0
       11433.878       148.99615       26.927135       0
       11446.073       101.08691       22.413877       0
       11458.267       52.723462       29.860402       0
       11470.462       178.31570       25.816399       0
       11482.657       230.21951       35.141419       0
       11494.851       122.97047       30.611746       0
       11507.046       362.50258       42.964061       0
       11519.241       203.74998       38.120696       0
       11531.435       422.65896       53.611454       0
       11543.630       278.42744       47.474860       0
       11555.825      -65.294985       76.832027       0
       11568.019       149.36185       58.056581       0
       11580.214       186.02879       94.432831       0
       11592.409       902.13054       72.022327       0
       11604.603       185.73036       103.04505       0
       11616.798       1095.7299       94.377908       0
       11628.993      -1301.5851       134.05434       0
       11641.187       897.45737       124.63485       0
       11653.382       1418.1968       176.37262       0
       11665.577      -426.54095       150.86107       0
       11677.771       3907.0862       194.38460       0
       11689.966      -630.82439       153.84520       0
       11702.161       2177.3914       191.28987       0
       11714.355       342.27734       149.54658       0
       11726.550      -1082.4502       188.38394       0
       11738.745       122.27676       156.21924       0
       11750.939       1900.0927       206.75568       0
       11763.134       1012.9992       216.49285       0
       11775.329      -803.36518       242.80391       0
       11787.523       2340.3478       213.67336       0
       11799.718      -3816.3158       287.76097       0
       11811.913      -5618.0287       259.68647       0
       11824.108       8778.6794       332.58889       0
       11836.302      -2222.7887       287.13026       0
       11848.497       20060.645       404.71732       0
       11860.692       15249.999       432.82393       0
       11872.886      -1217.0231       489.00776       0
       11885.081      -11719.140       417.81139       0
       11897.276      -3492.3478       546.88915       0
       11909.470       11778.081       442.16295       0
       11921.665       11760.579       551.54409       0
