#WAVELENGTH FLUX ERROR MASK
       10161.171       24740.369       60913879.       0
       10183.656       24866.521       184.17500       0
       10206.140       20821.600       179.44496       0
       10228.625       17466.719       162.15058       0
       10251.109       15452.407       156.48752       0
       10273.593       12521.856       140.08931       0
       10296.078       11866.455       134.05221       0
       10318.562       9485.5551       125.93367       0
       10341.046       8661.0609       121.80344       0
       10363.531       7511.3692       113.91749       0
       10386.015       5137.5979       100.63546       0
       10408.499       6279.6049       104.34709       0
       10430.984       5506.7234       100.53535       0
       10453.468       4711.6594       91.630122       0
       10475.952       3998.2005       86.554327       0
       10498.437       3961.1864       78.460670       0
       10520.921       2771.7679       72.797483       0
       10543.406       2551.8874       66.785775       0
       10565.890       2424.6738       64.042565       0
       10588.374       2372.9037       59.558539       0
       10610.859       1905.8347       57.127266       0
       10633.343       1839.9421       53.371071       0
       10655.827       1511.7982       51.367572       0
       10678.312       1367.3542       47.364848       0
       10700.796       1196.1592       44.890791       0
       10723.280       1088.1240       40.873725       0
       10745.765       856.06285       37.901152       0
       10768.249       791.52162       34.257232       0
       10790.734       677.90066       31.906403       0
       10813.218       609.52708       29.186944       0
       10835.702       550.07131       27.677718       0
       10858.187       513.54123       25.994367       0
       10880.671       379.99966       24.570969       0
       10903.155       464.79335       23.627283       0
       10925.640       428.36134       7877199.0       0
       10948.124       411.00175       21.965385       0
       10970.608       380.83629       21.706217       0
       10993.093       250.14603       18.170491       0
       11015.577       333.03277       20.406845       1
       11038.062       332.78713       19.308487       1
       11060.546       295.44507       19.146418       1
       11083.030       312.14557       18.328624       1
       11105.515       303.25590       18.475691       1
       11127.999       306.58386       17.566929       1
       11150.483       287.10984       17.890130       1
       11172.968       272.08598       17.137946       1
       11195.452       298.64979       17.554602       1
       11217.936       264.08101       16.904396       1
       11240.421       262.27149       17.176436       1
       11262.905       301.64246       16.946592       1
       11285.390       264.94182       17.168559       1
       11307.874       280.69966       16.649001       1
       11330.358       263.82004       17.046842       1
       11352.843       262.45311       16.393534       1
       11375.327       273.96605       16.855458       1
       11397.811       237.31566       16.365481       1
       11420.296       242.98390       16.486405       1
       11442.780       240.43388       16.335198       1
       11465.264       260.25323       16.566766       1
       11487.749       253.25290       17.051434       1
       11510.233       242.73310       16.487932       1
       11532.718       265.15237       16.189738       1
       11555.202       245.30985       16.427303       1
       11577.686       242.62596       16.029129       1
       11600.171       262.16468       16.397108       1
       11622.655       251.99488       15.973979       1
       11645.139       266.95405       16.376700       1
       11667.624       250.34444       15.882062       1
       11690.108       245.28634       16.097277       1
       11712.592       242.65852       15.572704       1
       11735.077       237.86065       15.955307       1
       11757.561       241.27104       15.441889       1
       11780.046       213.49230       15.659210       1
       11802.530       245.38250       15.247596       1
       11825.014       224.44526       15.593547       1
       11847.499       232.68322       15.121632       1
       11869.983       218.41762       15.400494       1
       11892.467       207.91287       15.400334       1
       11914.952       209.15179       15.219785       1
       11937.436       198.23796       15.293728       1
       11959.920       200.85572       15.106590       1
       11982.405       227.07575       15.016344       1
       12004.889       215.75114       15.168808       1
       12027.374       209.59983       14.586834       1
       12049.858       222.58638       15.203818       1
       12072.342       198.04648       14.662734       1
       12094.827       200.36159       14.912768       1
       12117.311       201.07134       14.679000       1
       12139.795       193.10398       14.843781       1
       12162.280       204.56740       14.624739       1
       12184.764       187.17182       14.739191       1
       12207.248       192.93547       14.363435       1
       12229.733       175.99689       14.579962       1
       12252.217       180.00122       14.196471       1
       12274.702       180.07152       14.519591       1
       12297.186       176.91545       14.131851       1
       12319.670       167.67437       14.273409       1
       12342.155       176.94109       14.045394       1
       12364.639       175.09103       14.358876       1
       12387.123       167.64169       13.912933       1
       12409.608       158.43467       14.139738       1
       12432.092       166.02849       13.866555       1
       12454.576       166.68870       14.138185       1
       12477.061       151.31658       13.676662       1
       12499.545       169.19686       14.189358       1
       12522.030       157.07521       13.797728       1
       12544.514       157.49002       13.888552       1
       12566.998       157.40436       13.459675       1
       12589.483       149.27272       13.898924       1
       12611.967       139.56715       13.283824       1
       12634.451       169.89688       13.902875       1
       12656.936       154.83696       13.322248       1
       12679.420       152.66915       13.736123       1
       12701.904       155.85871       13.298400       1
       12724.389       154.53556       13.785670       1
       12746.873       140.31679       13.101545       1
       12769.358       150.41402       13.726720       1
       12791.842       148.23723       13.058054       1
       12814.326       150.93320       13.466604       1
       12836.811       143.04421       12.922591       1
       12859.295       143.22034       13.363488       1
       12881.779       144.60193       12.957865       1
       12904.264       143.38110       13.339756       1
       12926.748       169.53267       13.170510       1
       12949.232       147.54743       13.231449       1
       12971.717       134.74854       12.759763       1
       12994.201       144.21358       13.251062       1
       13016.686       138.63283       12.735059       1
       13039.170       128.37673       12.978696       1
       13061.654       145.61622       12.765106       1
       13084.139       145.49658       13.061222       1
       13106.623       127.05082       12.728159       1
       13129.107       131.43336       13.007807       1
       13151.592       119.23074       12.633131       1
       13174.076       141.93693       13.131873       1
       13196.560       131.70712       12.631283       1
       13219.045       133.60936       12.963224       1
       13241.529       130.90196       12.580457       1
       13264.013       131.63220       12.918796       1
       13286.498       140.07301       12.600105       1
       13308.982       133.25867       12.826533       1
       13331.467       118.82965       12.421060       1
       13353.951       140.26977       12.947399       1
       13376.435       133.98317       12.487498       1
       13398.920       123.40420       12.699114       1
       13421.404       135.12165       12.429938       1
       13443.888       138.73270       12.860068       1
       13466.373       131.25104       12.357305       1
       13488.857       137.21068       12.757031       1
       13511.341       125.66991       12.142239       1
       13533.826       135.89126       12.683372       1
       13556.310       131.95008       12.142646       1
       13578.795       131.89362       12.626349       1
       13601.279       134.75230       12.324537       1
       13623.763       135.64437       12.629994       1
       13646.248       140.47496       12.375165       1
       13668.732       163.31503       12.905413       1
       13691.216       144.27253       12.464949       1
       13713.701       158.15031       12.895521       1
       13736.185       106.92206       10.545427       1
       13758.669       137.74036       12.709269       1
       13781.154       128.43171       12.252132       1
       13803.638       136.53955       12.714058       1
       13826.123       120.52095       12.249971       1
       13848.607       139.88007       12.729681       1
       13871.091       126.61887       4252982.7       1
       13893.576       119.69327       12.714441       1
       13916.060       131.00214       12.292975       1
       13938.544       130.84927       12.570346       1
       13961.029       131.78613       12.279135       1
       13983.513       134.87427       12.568413       1
       14005.997       88.732161       10.257421       1
       14028.482       130.47738       12.505265       1
       14050.966       146.33294       12.337054       1
       14073.451       132.66110       12.504860       1
       14095.935       143.99297       12.240878       1
       14118.419       129.94676       12.361691       1
       14140.904       122.90960       12.007250       1
       14163.388       134.59036       12.445335       1
       14185.872       90.652512       10.517018       1
       14208.357       125.83456       12.391041       1
       14230.841       90.688178       10.285424       1
       14253.325       122.52512       12.189570       1
       14275.810       126.46491       11.831795       1
       14298.294       126.66131       12.201482       1
       14320.779       122.33943       11.714951       1
       14343.263       122.08829       12.145774       1
       14365.747       130.70010       11.777851       1
       14388.232       125.50725       12.123695       1
       14410.716       131.02772       11.740030       1
       14433.200       132.99760       12.238782       1
       14455.685       126.95101       11.693670       1
       14478.169       119.39479       12.200125       1
       14500.653       122.56810       11.677238       1
       14523.138       121.53285       12.262123       1
       14545.622       132.10779       11.809150       1
       14568.107       128.89905       12.108823       1
       14590.591       120.76992       11.687688       1
       14613.075       126.91556       12.155523       1
       14635.560       120.14969       11.702853       1
       14658.044       127.73492       12.185549       1
       14680.528       122.68930       11.734058       1
       14703.013       128.40682       12.198466       1
       14725.497       119.67030       11.665756       1
       14747.981       120.20689       12.114575       1
       14770.466       118.98208       11.693205       1
       14792.950       116.45549       12.222908       1
       14815.435       123.96216       3659772.2       1
       14837.919       122.37366       12.260426       1
       14860.403       122.88426       11.959563       1
       14882.888       116.98225       12.152102       1
       14905.372       117.33586       11.892096       1
       14927.856       117.97475       12.089222       1
       14950.341       128.26571       11.962930       1
       14972.825       123.68808       12.144343       1
       14995.309       125.52606       11.908920       1
       15017.794       124.84290       12.187655       1
       15040.278       121.58349       11.885954       1
       15062.763       122.59316       12.264370       1
       15085.247       124.28070       11.883924       1
       15107.731       119.24238       12.287162       1
       15130.216       128.05285       11.919481       1
       15152.700       122.38710       12.117937       1
       15175.184       124.16791       11.873618       1
       15197.669       115.93119       12.082791       1
       15220.153       124.00839       11.865218       1
       15242.637       122.08333       12.059799       1
       15265.122       122.51438       3590164.8       1
       15287.606       111.76772       11.977417       1
       15310.091       130.63462       11.883957       1
       15332.575       114.37736       12.002905       1
       15355.059       122.17796       11.658033       1
       15377.544       117.42699       11.960549       1
       15400.028       121.38997       11.693660       1
       15422.512       122.34368       12.047766       1
       15444.997       114.47005       11.664327       1
       15467.481       114.64324       11.994370       1
       15489.965       109.12215       11.623639       1
       15512.450       112.27307       11.941063       1
       15534.934       120.08558       11.686819       1
       15557.419       125.71904       12.041861       1
       15579.903       108.76813       11.624024       1
       15602.387       125.91625       12.040431       1
       15624.872       119.72810       11.705048       1
       15647.356       111.44309       11.958727       1
       15669.840       110.21824       11.555918       1
       15692.325       89.254239       10.283153       1
       15714.809       118.42790       11.612380       1
       15737.293       115.75063       11.917444       1
       15759.778       118.87612       11.574926       1
       15782.262       118.90993       11.902552       1
       15804.747       115.95482       11.629811       1
       15827.231       121.14767       11.920810       1
       15849.715       134.60430       11.791407       1
       15872.200       115.85902       11.908450       1
       15894.684       110.73631       11.608634       1
       15917.168       109.82541       12.800460       1
       15939.653       111.02523       11.615168       1
       15962.137       110.24176       12.856801       1
       15984.621       102.61847       12.091705       1
       16007.106       91.749928       10.293121       1
       16029.590       99.022498       12.037181       1
       16052.074       108.75567       11.905724       1
       16074.559       82.417945       9.8293499       1
       16097.043       104.39619       11.824513       1
       16119.528       99.219631       11.520043       1
       16142.012       102.61377       11.879677       1
       16164.496       100.13503       11.512469       1
       16186.981       108.35237       11.914139       1
       16209.465       102.59917       11.620221       1
       16231.949       104.09693       11.963760       1
       16254.434       100.50865       11.635239       1
       16276.918       105.67758       12.008824       1
       16299.402       123.44442       11.843452       1
       16321.887       105.54507       12.015020       1
       16344.371       100.02122       11.669095       1
       16366.856       101.28364       12.244208       1
       16389.340       110.50497       11.799963       1
       16411.824       101.52050       12.033875       1
       16434.309       102.62290       11.732240       1
       16456.793       79.470323       10.797368       1
       16479.277       98.885492       11.938163       1
       16501.762       110.88620       12.418644       1
       16524.246       86.522056       11.170697       1
       16546.730       100.20602       12.541999       1
       16569.215       105.40830       12.622873       1
       16591.699       107.19978       13.170665       1
       16614.184       113.14736       13.316540       1
       16636.668       107.35434       13.970777       1
       16659.152       109.37868       14.072980       1
       16681.637       96.923512       13.507713       1
       16704.121       114.45910       15.317320       1
       16726.605       113.07426       16.788095       1
       16749.090       111.49301       17.403436       1
       16771.574       110.19637       18.861474       0
       16794.058       138.99306       19.771511       0
       16816.543       122.37806       21.338022       0
       16839.027       129.22377       22.155831       0
       16861.512       171.62209       24.116735       0
       16883.996       151.35949       24.775998       0
       16906.480       108.59281       8531303.3       0
       16928.965       149.22318       27.473898       0
       16951.449       136.84603       26.584540       0
       16973.933       149.05024       30.526691       0
       16996.418       120.86112       32.217288       0
       17018.902       95.751113       32.860942       0
       17041.386       68.291773       35.462708       0
       17063.871       102.55137       36.121821       0
       17086.355       31.084197       39.308990       0
       17108.840      0.53734400       39.641459       0
       17131.324       111.50444       44.608021       0
       17153.808       172.10214       45.737379       0
