#WAVELENGTH FLUX ERROR MASK
       7496.9478       2898.3604       340.23869       0
       7509.0949       8831.2270       391.93135       0
       7521.2421       9185.4035       285.38434       0
       7533.3892      -1206.5195       329.57161       0
       7545.5364      -2391.2039       237.03020       0
       7557.6836      -3166.6772       263.66352       0
       7569.8307       412.41725       188.58867       0
       7581.9779       144.41469       210.62550       0
       7594.1251      -518.00324       152.26347       0
       7606.2722       3056.4544       175.16706       0
       7618.4194       234.87224       129.06734       0
       7630.5665       2284.0213       150.13348       0
       7642.7137      -609.17075       111.03638       0
       7654.8609       57.432276       128.56577       0
       7667.0080      -31.057155       94.219995       0
       7679.1552       1673.6424       109.18224       0
       7691.3024       206.68865       78.978703       0
       7703.4495       949.16537       91.403692       0
       7715.5967       365.93724       67.190675       0
       7727.7438       162.61462       78.928478       0
       7739.8910       7.7549490       59.721020       0
       7752.0382      -49.043557       71.509095       0
       7764.1853       548.05997       55.267579       0
       7776.3325       55.054628       66.001871       0
       7788.4797       539.21897       50.710239       0
       7800.6268       123.98597       60.118733       0
       7812.7740       78.809241       45.384839       0
       7824.9211       385.22105       54.678443       0
       7837.0683       91.376586       41.835736       0
       7849.2155       240.36185       48.709373       0
       7861.3626       145.51747       39.341219       0
       7873.5098      -108.08726       44.230725       0
       7885.6570       60.435709       33.984646       0
       7897.8041       311.10210       41.584978       0
       7909.9513       59.501283       32.010047       0
       7922.0984       224.61365       39.351395       0
       7934.2456      0.52961605       30.265399       0
       7946.3928      -67.579136       36.947789       0
       7958.5399      -9.1688328       28.906452       0
       7970.6871       132.77562       35.571749       0
       7982.8343       168.70189       27.987573       0
       7994.9814       23.340453       34.189256       0
       8007.1286       115.28849       27.019419       0
       8019.2757       295.15572       33.474551       0
       8031.4229       129.32211       26.273973       0
       8043.5701       17.956344       26.338968       0
       8055.7172      -9.2934552       25.502929       0
       8067.8644       63.146522       31.777527       0
       8080.0116       95.192012       27.228687       0
       8092.1587       61.599910       31.093017       0
       8104.3059       101.44790       24.804096       0
       8116.4530       21.843520       30.666176       0
       8128.6002       87.756961       24.379351       0
       8140.7474       108.14444       30.255285       0
       8152.8945       50.288364       24.998165       1
       8165.0417       78.252927       27.523249       1
       8177.1889       32.074599       24.465355       1
       8189.3360       119.62879       32.561818       1
       8201.4832       86.374011       24.869421       1
       8213.6304       130.27396       28.683144       1
       8225.7775       118.48226       23.495502       1
       8237.9247       86.666586       27.871992       1
       8250.0718       89.326367       22.940391       1
       8262.2190       135.00852       27.164832       1
       8274.3662       69.385923       21.422579       1
       8286.5133       76.191412       26.494937       1
       8298.6605       94.047361       20.976800       1
       8310.8077       53.487390       25.812852       1
       8322.9548       73.379223       20.510037       1
       8335.1020       92.986735       25.590429       1
       8347.2491       90.330021       24.144505       1
       8359.3963       101.35271       25.243329       1
       8371.5435       112.29177       23.777868       1
       8383.6906       135.84143       25.021699       1
       8395.8378       65.448770       19.794532       1
       8407.9850       95.384578       24.642048       1
       8420.1321       77.041626       19.442521       1
       8432.2793       89.535395       24.255398       1
       8444.4264       68.499536       19.171856       1
       8456.5736       98.374739       23.999963       1
       8468.7208       91.476816       18.899759       1
       8480.8679       45.731404       23.494903       1
       8493.0151       55.902462       18.630833       1
       8505.1623       41.163612       23.051291       1
       8517.3094       62.007734       18.449375       1
       8529.4566       65.954399       22.980788       1
       8541.6037       60.280892       18.251813       1
       8553.7509       98.642022       22.682224       1
       8565.8981       6.6851306       21.699950       1
       8578.0452       91.641489       22.774684       1
       8590.1924       111.95023       18.174183       1
       8602.3396       118.67402       22.704389       1
       8614.4867       92.149160       18.166907       1
       8626.6339       27.081950       22.268616       1
       8638.7810       79.627389       18.014316       1
       8650.9282       54.520496       22.295673       1
       8663.0754       79.019291       19.051777       1
       8675.2225       78.973654       22.238209       1
       8687.3697       97.149667       18.888929       1
       8699.5169       82.077464       21.910240       1
       8711.6640       81.874244       17.284319       1
       8723.8112       78.372352       21.517700       1
       8735.9583       114.59044       17.073574       1
       8748.1055       97.372752       21.206167       1
       8760.2527       73.877604       16.789093       1
       8772.3998       59.811070       20.789040       1
       8784.5470       101.49592       16.685192       1
       8796.6942       99.903747       20.547525       1
       8808.8413       109.33633       16.521835       1
       8820.9885       76.785436       20.464720       1
       8833.1356       53.443847       16.219730       1
       8845.2828       112.22458       20.331022       1
       8857.4300       100.02198       16.230856       1
       8869.5771       52.006548       19.884470       1
       8881.7243       97.544186       16.033180       1
       8893.8715       67.864579       19.838007       1
       8906.0186       125.37131       16.963428       1
       8918.1658       98.584001       19.845729       1
       8930.3129       84.837905       15.776244       1
       8942.4601       126.34352       19.795590       1
       8954.6073       92.841535       15.637670       1
       8966.7544       109.38789       19.514154       1
       8978.9016       80.912495       15.454116       1
       8991.0488       111.30271       19.377872       1
       9003.1959       90.524019       15.375206       1
       9015.3431       116.54543       19.328986       1
       9027.4902       73.063209       15.219989       1
       9039.6374       92.159345       19.164664       1
       9051.7846       110.74280       15.275946       1
       9063.9317       116.49661       19.159117       1
       9076.0789       73.428164       15.049718       1
       9088.2261       109.43006       18.988555       1
       9100.3732       107.51711       15.068567       1
       9112.5204       90.630854       18.791007       1
       9124.6675       139.68611       14.998238       1
       9136.8147       104.86728       18.609286       1
       9148.9619       156.02215       15.684106       1
       9161.1090       101.65226       18.406405       1
       9173.2562       76.456888       14.545775       1
       9185.4034       106.55643       18.260578       1
       9197.5505       86.050163       14.467101       1
       9209.6977       119.29187       18.124926       1
       9221.8448       89.909841       14.342970       1
       9233.9920       109.25160       18.100016       1
       9246.1392       114.34196       14.306421       1
       9258.2863       86.945294       5466142.4       1
       9270.4335       100.72629       16.199193       1
       9282.5807       88.169865       17.865026       1
       9294.7278       94.332806       14.146875       1
       9306.8750       104.07217       18.799835       1
       9319.0221       93.837731       14.058955       1
       9331.1693       117.12461       17.758903       1
       9343.3165       104.27110       14.724313       1
       9355.4636       100.05949       17.705133       1
       9367.6108       107.02937       14.678935       1
       9379.7580       121.65008       17.768480       1
       9391.9051       81.164221       14.504904       1
       9404.0523       131.89619       17.466390       1
       9416.1994       111.80129       15.804069       1
       9428.3466       132.30465       17.324726       1
       9440.4938       123.54910       13.782597       1
       9452.6409       103.68381       17.316340       1
       9464.7881       127.02883       13.736697       1
       9476.9353       78.300356       14.710168       1
       9489.0824       127.94628       13.622956       1
       9501.2296       153.90478       17.111636       1
       9513.3768       150.99090       17.341772       1
       9525.5239       161.27904       17.093347       1
       9537.6711       126.19976       14.406082       1
       9549.8182       130.93461       16.849049       1
       9561.9654       115.03286       13.522033       1
       9574.1126       117.83512       16.749281       1
       9586.2597       138.56404       13.396322       1
       9598.4069       141.44844       16.768421       1
       9610.5541       128.45988       13.343876       1
       9622.7012       127.84224       16.626973       1
       9634.8484       126.42968       13.269431       1
       9646.9955       128.85422       16.477504       1
       9659.1427       109.24838       13.088710       1
       9671.2899       107.79690       16.374795       1
       9683.4370       116.73965       13.117592       1
       9695.5842       97.857303       16.319778       1
       9707.7314       131.39074       13.179142       1
       9719.8785       119.30416       16.367629       1
       9732.0257       113.45786       13.004222       1
       9744.1728       141.35951       16.406502       1
       9756.3200       130.04648       12.972510       1
       9768.4672       103.38155       16.173373       1
       9780.6143       120.31085       15.627865       1
       9792.7615       108.36479       5985544.9       1
       9804.9087       89.150689       12.791662       1
       9817.0558       133.01449       16.123643       1
       9829.2030       105.64838       12.796471       1
       9841.3501       134.18986       16.061316       1
       9853.4973       128.41442       12.851016       1
       9865.6445       135.19233       16.191712       1
       9877.7916       145.16125       12.873966       1
       9889.9388       108.57653       15.998664       1
       9902.0860       114.36389       12.768850       1
       9914.2331       135.73711       16.017664       1
       9926.3803       141.52427       12.824648       1
       9938.5274       121.88154       15.935517       1
       9950.6746       139.04747       12.733819       1
       9962.8218       136.60882       15.882434       1
       9974.9689       133.55717       15.849022       1
       9987.1161       117.78681       15.714410       1
       9999.2633       128.54063       12.545045       1
       10011.410       125.65424       15.643471       1
       10023.558       143.05012       12.558787       1
       10035.705       141.69783       15.646034       1
       10047.852       111.27532       12.405586       1
       10059.999       136.51528       15.672013       1
       10072.146       122.47678       12.482474       1
       10084.293       123.24064       15.519617       1
       10096.441       126.11477       14.175506       1
       10108.588       116.65108       15.399139       1
       10120.735       126.03238       14.681217       1
       10132.882       136.86990       15.632962       1
       10145.029       102.12133       14.069568       1
       10157.176       109.40907       15.361387       1
       10169.324       133.16797       12.361670       1
       10181.471       104.91546       15.378160       1
       10193.618       118.13574       13.306204       1
       10205.765       118.66092       15.323475       1
       10217.912       104.11711       12.203649       1
       10230.059       128.97599       15.426408       1
       10242.207       125.45620       12.214800       1
       10254.354       116.65365       15.055830       1
       10266.501       116.55454       12.092803       1
       10278.648       134.70670       15.105275       1
       10290.795       119.56243       12.039511       1
       10302.942       117.45994       15.050784       1
       10315.089       127.02421       12.037314       1
       10327.237       146.32893       15.060802       1
       10339.384       135.06141       11.989754       1
       10351.531       140.42001       14.911993       1
       10363.678       123.37119       11.881928       1
       10375.825       84.049455       13.457746       1
       10387.972       117.65412       11.907508       1
       10400.120       139.40359       14.995512       1
       10412.267       131.78376       11.946237       1
       10424.414       103.36574       14.815465       1
       10436.561       121.28784       11.875367       1
       10448.708       141.64330       14.942267       1
       10460.855       131.73109       11.918574       1
       10473.003       122.19733       14.868912       1
       10485.150       127.50342       11.871709       1
       10497.297       130.39400       14.808551       1
       10509.444       126.77463       11.843616       1
       10521.591       138.05403       14.950777       1
       10533.738       124.86010       11.778948       1
       10545.886       129.75407       14.849764       1
       10558.033       145.01385       15.069117       1
       10570.180       114.04835       14.695061       1
       10582.327       140.17005       11.904620       1
       10594.474       142.26313       14.873985       1
       10606.621       145.11620       11.880314       1
       10618.769       120.96818       14.620565       1
       10630.916       134.56486       11.736182       1
       10643.063       152.87693       14.853429       1
       10655.210       123.07196       11.661716       1
       10667.357       116.31919       14.566479       1
       10679.504       132.15309       11.638922       1
       10691.652       162.59608       14.690140       1
       10703.799       119.25904       11.604848       1
       10715.946       121.12404       14.581932       1
       10728.093       132.01524       11.646417       1
       10740.240       120.14744       14.553606       1
       10752.387       133.83766       11.657201       1
       10764.535       125.77727       14.581706       1
       10776.682       140.90583       11.636926       1
       10788.829       125.95533       14.517358       1
       10800.976       119.66198       11.533410       1
       10813.123       123.90667       14.437226       1
       10825.270       148.98919       11.677479       1
       10837.417       140.32250       14.548901       1
       10849.565       134.19330       11.535025       1
       10861.712       143.05056       16.218468       1
       10873.859       143.54482       11.520271       1
       10886.006       144.78956       14.524193       1
       10898.153       138.82789       11.545552       1
       10910.300       132.97198       14.394065       1
       10922.448       134.61301       11.504906       1
       10934.595       145.63575       14.455342       1
       10946.742       139.18672       11.527222       1
       10958.889       132.42378       14.360544       1
       10971.036       135.62230       11.539089       1
       10983.183       127.09269       14.395538       1
       10995.331       132.52595       11.520671       1
       11007.478       149.67431       14.528276       1
       11019.625       125.99062       11.468485       1
       11031.772       134.59425       14.358303       1
       11043.919       139.31936       13.102830       1
       11056.066       140.41257       14.433756       1
       11068.214       128.50362       11.462181       1
       11080.361       128.63320       14.344864       1
       11092.508       139.35438       11.655006       1
       11104.655       138.28899       14.399973       1
       11116.802       134.30186       11.472136       1
       11128.949       148.00364       14.468558       1
       11141.097       138.05600       11.498541       1
       11153.244       122.96459       14.277518       1
       11165.391       125.74849       11.466746       1
       11177.538       130.04956       15.301034       1
       11189.685       126.42043       11.485524       1
       11201.832       116.20321       14.188965       0
       11213.980       131.93827       11.482197       0
       11226.127       122.47137       14.247093       0
       11238.274       132.71759       11.448166       0
       11250.421       139.46705       14.340231       0
       11262.568       144.10328       13.280405       0
       11274.715       145.08972       14.396956       0
       11286.862       118.78021       13.469817       0
       11299.010       129.05576       14.367199       0
       11311.157       131.13823       11.486796       0
       11323.304       105.06228       14.273058       0
       11335.451       112.94836       11.541852       0
       11347.598       115.21850       14.500552       0
       11359.745       123.24814       11.906791       0
       11371.893       88.288521       13.464011       0
       11384.040       144.30558       12.603884       0
       11396.187       103.06611       16.148746       0
       11408.334       90.230666       13.491193       0
       11420.481       83.534942       17.819629       0
       11432.628       128.27043       15.162054       0
       11444.776       123.18986       20.230807       0
       11456.923       101.49727       18.016423       0
       11469.070       121.76821       22.657898       0
       11481.217       83.084298       19.185122       0
       11493.364       125.01253       25.308826       0
       11505.511       105.09005       21.298079       0
       11517.659       73.028641       27.931920       0
       11529.806       130.15921       23.718209       0
       11541.953       104.87833       31.526810       0
       11554.100       109.47824       27.071071       0
       11566.247       88.359242       36.753947       0
       11578.394       132.33335       32.400919       0
       11590.542      -56.630583       44.625988       0
       11602.689       249.54725       40.181636       0
       11614.836      -1.4905782       55.513855       0
       11626.983       276.52565       49.570577       0
       11639.130       36.336713       67.984468       0
       11651.277       40.613751       59.760526       0
       11663.425       1234.2736       83.013827       0
       11675.572      -695.07143       73.220070       0
       11687.719       846.99123       105.06204       0
       11699.866      -466.38253       95.301177       0
       11712.013       1102.7662       136.41191       0
       11724.160       1082.8870       125.24321       0
       11736.308      -7.6091063       177.15175       0
       11748.455      -846.98560       150.66260       0
       11760.602       2746.1471       195.26325       0
       11772.749       353.11600       155.99796       0
       11784.896       1096.6040       192.49472       0
       11797.043       309.58775       151.18941       0
       11809.190       3045.9347       190.20563       0
       11821.338       86.592797       154.72870       0
       11833.485      -2697.3408       200.96640       0
       11845.632       3895.2307       173.41721       0
       11857.779       548.72061       211.80041       0
