#WAVELENGTH FLUX ERROR MASK
       10205.405      -1778.5457       169.08967       0
       10228.425       1246.8909       180.56795       0
       10251.445       1104.1685       162.55435       0
       10274.465      -181.98118       154.74423       0
       10297.484       82.329213       140.03623       0
       10320.504      -518.28723       134.91782       0
       10343.524       406.13608       124.66820       0
       10366.543       686.77803       123.84201       0
       10389.563       391.14671       113.93272       0
       10412.583       276.73410       112.52468       0
       10435.603       412.74498       102.82720       0
       10458.622       201.72138       98.314765       0
       10481.642      -56.207450       86.801241       0
       10504.662       427.12004       83.662614       0
       10527.681       195.24385       74.612460       0
       10550.701       436.33999       72.724177       0
       10573.721       221.92862       64.916071       0
       10596.741       87.674301       62.734612       0
       10619.760       192.14166       58.462708       0
       10642.780       409.87434       57.058503       0
       10665.800       160.84124       52.280361       0
       10688.820       212.13028       50.479754       0
       10711.839       258.26377       45.779244       0
       10734.859       191.35999       42.709245       0
       10757.879       95.728963       37.726014       0
       10780.898       47.418395       31.851129       0
       10803.918       174.01253       32.078192       0
       10826.938       169.65699       30.618475       0
       10849.958       135.64501       27.966334       0
       10872.977       133.36219       27.443002       0
       10895.997       138.97304       25.721250       0
       10919.017       128.71050       25.325404       0
       10942.036       137.03293       23.923964       0
       10965.056       173.76409       24.120681       0
       10988.076       145.35959       22.519544       0
       11011.096       104.61116       22.130792       1
       11034.115       134.37371       21.047491       1
       11057.135       89.855642       20.718771       1
       11080.155       122.47454       19.895378       1
       11103.174       155.19348       20.168608       1
       11126.194       136.72393       19.237411       1
       11149.214       92.064133       19.153902       1
       11172.234       124.93063       18.673499       1
       11195.253       100.06715       18.890265       1
       11218.273       115.04585       18.389738       1
       11241.293       115.19484       18.735845       1
       11264.312       123.65324       18.229203       1
       11287.332       111.90803       18.554977       1
       11310.352       106.93884       18.097669       1
       11333.372       137.84116       18.627742       1
       11356.391       129.54793       17.934197       1
       11379.411       122.52601       18.414137       1
       11402.431       107.88702       17.729043       1
       11425.451       112.57866       18.170973       1
       11448.470       122.39799       17.779433       1
       11471.490       107.69950       17.944265       1
       11494.510       96.329221       17.524192       1
       11517.529       105.41603       17.927767       1
       11540.549       105.50706       17.604285       1
       11563.569       127.21261       18.017876       1
       11586.589       118.03761       17.603211       1
       11609.608       119.37400       17.946128       1
       11632.628       132.66899       17.602303       1
       11655.648       130.24600       17.853000       1
       11678.667       125.79820       17.333216       1
       11701.687       75.880228       15.767480       1
       11724.707       113.21025       17.056449       1
       11747.727       118.73976       17.308093       1
       11770.746       75.675504       15.099893       1
       11793.766       134.77689       17.407360       1
       11816.786       133.60557       16.851998       1
       11839.805       119.38384       17.172418       1
       11862.825       96.136455       14.893890       1
       11885.845       116.42163       17.019693       1
       11908.865       127.16514       16.462816       1
       11931.884       128.87126       17.028084       1
       11954.904       117.85290       16.398094       1
       11977.924       120.09620       16.860794       1
       12000.943       82.954112       14.756338       1
       12023.963       113.28968       16.829139       1
       12046.983       117.23473       16.135948       1
       12070.003       105.23700       16.516797       1
       12093.022       115.32164       16.089351       1
       12116.042       103.47177       16.404939       1
       12139.062       124.38381       16.101598       1
       12162.082       113.69900       16.358481       1
       12185.101       108.86375       15.883006       1
       12208.121       105.65017       16.261946       1
       12231.141       121.13513       15.924729       1
       12254.160       105.86547       16.183571       1
       12277.180       108.17136       15.686159       1
       12300.200       107.18528       16.135456       1
       12323.220       121.95284       15.770163       1
       12346.239       98.622025       16.007976       1
       12369.259       123.11624       15.667006       1
       12392.279       97.772190       15.890994       1
       12415.298       98.511136       15.442470       1
       12438.318       112.51537       16.000279       1
       12461.338       102.53465       15.459763       1
       12484.358       106.19814       15.850706       1
       12507.377       128.20652       15.596285       1
       12530.397       108.72207       15.800961       1
       12553.417       116.77727       15.434092       1
       12576.436       99.826639       15.766765       1
       12599.456       119.72708       15.478868       1
       12622.476       108.27461       15.804490       1
       12645.496       104.02497       15.205953       1
       12668.515       126.79408       15.932336       1
       12691.535       110.76807       15.284914       1
       12714.555       110.81357       15.703624       1
       12737.574       109.69110       15.187755       1
       12760.594       105.80587       15.529263       1
       12783.614       118.97529       15.166952       1
       12806.634       99.507287       15.407546       1
       12829.653       116.09311       15.091703       1
       12852.673       112.64122       15.446081       1
       12875.693       122.57092       15.087435       1
       12898.713       111.30447       15.396514       1
       12921.732       111.96309       15.009104       1
       12944.752       117.14855       15.397085       1
       12967.772       106.16685       14.878784       1
       12990.791       133.31908       15.441342       1
       13013.811       108.67360       14.739671       1
       13036.831       126.51344       15.265447       1
       13059.851       112.31270       14.795971       1
       13082.870       121.97184       15.159958       1
       13105.890       113.80452       14.759075       1
       13128.910       113.41854       15.032553       1
       13151.929       123.94594       14.656758       1
       13174.949       117.40216       15.007927       1
       13197.969       112.38321       14.503147       1
       13220.989       113.35401       14.936628       1
       13244.008       113.10408       14.437904       1
       13267.028       124.95255       14.999577       1
       13290.048       123.32439       14.524181       1
       13313.067       104.07613       14.758200       1
       13336.087       118.30211       14.357261       1
       13359.107       117.58154       14.949132       1
       13382.127       118.17952       14.398104       1
       13405.146       117.31181       14.878455       1
       13428.166       117.97163       14.335446       1
       13451.186       108.13457       14.738463       1
       13474.205       129.21154       14.279783       1
       13497.225       105.06935       14.566868       1
       13520.245       119.35723       14.188360       1
       13543.265       133.51860       14.841132       1
       13566.284       114.92748       14.212543       1
       13589.304       137.98981       14.872985       1
       13612.324       120.08623       14.246281       1
       13635.343       127.67930       14.828709       1
       13658.363       122.91682       14.240047       1
       13681.383       112.83468       14.716675       1
       13704.403       122.02584       14.329034       1
       13727.422       120.19497       14.777947       1
       13750.442       76.630303       12.772716       1
       13773.462       104.88093       14.594079       1
       13796.482       116.31439       14.182408       1
       13819.501       112.33005       14.702647       1
       13842.521       110.26783       14.160043       1
       13865.541       106.67356       14.608563       1
       13888.560       116.30350       14.221383       1
       13911.580       105.54050       14.651615       1
       13934.600       108.11867       14.066642       1
       13957.620       104.06134       14.555353       1
       13980.639       109.13398       13.984172       1
       14003.659       117.69844       14.584909       1
       14026.679       115.13380       14.035333       1
       14049.698       105.24938       14.436643       1
       14072.718       106.01287       13.960658       1
       14095.738       115.57143       14.499104       1
       14118.758       110.68155       13.841739       1
       14141.777       113.20648       14.303881       1
       14164.797       121.01634       13.935786       1
       14187.817       28.824908       11.050876       1
       14210.836       109.22697       13.807080       1
       14233.856       77.830794       12.876069       1
       14256.876       117.06313       13.869261       1
       14279.896       112.24169       14.373992       1
       14302.915       81.162770       12.450877       1
       14325.935       119.94820       14.296792       1
       14348.955       115.68892       13.770596       1
       14371.974       127.19057       14.286014       1
       14394.994       114.24906       13.683251       1
       14418.014       103.67099       14.144348       1
       14441.034       114.51609       13.843897       1
       14464.053       105.35708       14.125456       1
       14487.073       111.91638       13.736724       1
       14510.093       99.292200       14.025062       1
       14533.113       110.96092       13.785663       1
       14556.132       73.923998       12.884265       1
       14579.152       80.155630       12.699804       1
       14602.172       101.63137       14.125837       1
       14625.191       112.42163       13.779478       1
       14648.211       111.19195       14.144346       1
       14671.231       104.93978       13.749358       1
       14694.251       106.94703       3435857.3       1
       14717.270       101.97522       13.744761       1
       14740.290       110.60302       14.085059       1
       14763.310       102.55148       13.789809       1
       14786.329       102.30008       13.920728       1
       14809.349       98.680407       13.697443       1
       14832.369       100.16521       13.910846       1
       14855.389       109.42794       13.796683       1
       14878.408       97.201820       13.706470       1
       14901.428       103.97333       13.752572       1
       14924.448       100.66646       13.596808       1
       14947.467       109.28545       13.675422       1
       14970.487       100.45528       13.527840       1
       14993.507       104.32831       13.588293       1
       15016.527       90.869226       13.677612       1
       15039.546       102.35353       13.527837       1
       15062.566       99.553622       13.623099       1
       15085.586       107.82770       13.594232       1
       15108.605       100.70487       13.668381       1
       15131.625       108.49828       13.583203       1
       15154.645       102.95102       13.620208       1
       15177.665       92.368250       13.390031       1
       15200.684       103.51583       13.658763       1
       15223.704       111.67809       13.577405       1
       15246.724       96.023264       13.620555       1
       15269.744       94.702223       13.412488       1
       15292.763       98.791836       13.718514       1
       15315.783       85.437970       13.323247       1
       15338.803       108.03417       13.599181       1
       15361.822       100.35233       13.533414       1
       15384.842       98.461921       13.739483       1
       15407.862       101.90117       13.690459       1
       15430.882       109.07735       13.872407       1
       15453.901       113.02034       13.594561       1
       15476.921       81.843992       12.757008       1
       15499.941       122.93092       13.419874       1
       15522.960       110.95732       13.884433       1
       15545.980       108.56773       13.536982       1
       15569.000       94.559879       13.880774       1
       15592.020       91.114640       13.318496       1
       15615.039       98.921558       13.846582       1
       15638.059       109.98375       13.578585       1
       15661.079       94.607991       13.632388       1
       15684.098       100.58994       13.393473       1
       15707.118       101.10408       13.729683       1
       15730.138       114.90506       3682945.9       1
       15753.158       106.33138       13.777054       1
       15776.177       104.42673       13.468418       1
       15799.197       113.23043       13.848672       1
       15822.217       116.70608       13.510904       1
       15845.236       100.94810       13.726344       1
       15868.256       115.44832       13.402613       1
       15891.276       103.84868       13.695122       1
       15914.296       103.54815       13.409342       1
       15937.315       110.87111       13.748507       1
       15960.335       102.39577       13.368055       1
       15983.355       106.34469       13.698151       1
       16006.375       96.566806       13.148191       1
       16029.394       91.596554       13.616415       1
       16052.414       96.852898       13.245597       1
       16075.434       97.152564       13.649846       1
       16098.453       115.36443       13.298053       1
       16121.473       96.364408       13.491566       1
       16144.493       108.95652       13.184869       1
       16167.513       124.46664       13.908210       1
       16190.532       74.038754       11.829750       1
       16213.552       98.897109       13.719523       1
       16236.572       111.68785       13.375768       1
       16259.591       101.11611       13.784833       1
       16282.611       101.56467       13.013780       1
       16305.631       108.70323       13.874334       1
       16328.651       99.633863       13.099019       1
       16351.670       99.691713       13.762058       1
       16374.690       111.36693       13.505515       1
       16397.710       105.55684       13.890089       1
       16420.729       93.913394       13.390016       1
       16443.749       110.20838       13.892242       1
       16466.769       111.07248       13.559474       1
       16489.789       94.889456       13.863336       1
       16512.808       72.086383       12.372381       1
       16535.828       104.74720       14.208057       1
       16558.848       109.07552       14.169740       1
       16581.867       104.37064       14.793482       1
       16604.887       106.27953       14.841345       1
       16627.907       99.721134       15.608559       1
       16650.927       81.714210       15.619302       1
       16673.946       106.39122       16.992329       1
       16696.966       101.40797       17.371511       1
       16719.986       121.66605       18.869288       1
       16743.006       102.31280       19.396820       1
       16766.025       105.79839       21.107220       0
       16789.045       127.70167       22.073044       0
       16812.065       78.896343       23.761506       0
       16835.084       133.97285       24.860764       0
       16858.104       126.13407       26.771957       0
       16881.124       170.44561       27.770871       0
       16904.144       45.903228       29.641240       0
       16927.163       172.85690       31.009108       0
       16950.183       135.54332       33.350448       0
       16973.203       96.292422       34.128649       0
       16996.222       149.09425       37.294882       0
       17019.242       131.26161       38.019066       0
       17042.262       106.47009       41.105614       0
       17065.282       199.95204       42.164516       0
       17088.301       218.87619       45.735050       0
       17111.321       103.09631       46.652157       0
       17134.341       79.613705       51.797118       0
       17157.360       366.66357       54.465671       0
       17180.380      -65.460193       58.850036       0
       17203.400       242.77507       61.848437       0
       17226.420       195.56356       67.495720       0
       17249.439       394.01492       69.520934       0
       17272.459       226.93668       74.094699       0
       17295.479       268.94437       76.991774       0
       17318.498       162.23794       83.057566       0
       17341.518       563.44495       85.254375       0
       17364.538       415.29100       92.635814       0
