#WAVELENGTH FLUX ERROR MASK
       7477.3830      -9786.7274       361.81700       0
       7489.2536      -10054.474       356.33297       0
       7501.1243       13638.781       335.49432       0
       7512.9950      -18064.879       320.75583       0
       7524.8657      -2876.4701       351.50849       0
       7536.7363       7606.8238       256.82444       0
       7548.6070       34.295974       292.92442       0
       7560.4777       4782.3904       206.96053       0
       7572.3483       3012.9915       232.64894       0
       7584.2190       247.77200       165.53828       0
       7596.0897      -3964.3562       187.60199       0
       7607.9604       1549.7631       138.26176       0
       7619.8310       2398.9347       161.27518       0
       7631.7017      -1109.6496       146.61674       0
       7643.5724       388.43160       138.96163       0
       7655.4431       1389.9903       102.99353       0
       7667.3137       377.07378       119.21138       0
       7679.1844       76.491453       108.87447       0
       7691.0551       934.47414       99.787170       0
       7702.9257      -147.75639       91.458639       0
       7714.7964       777.79159       85.623874       0
       7726.6671      -389.62740       62.474886       0
       7738.5378       244.21231       76.116699       0
       7750.4084      -135.48314       61.710832       0
       7762.2791       72.253942       69.664058       0
       7774.1498       397.30617       52.575905       0
       7786.0205       405.93721       64.643264       0
       7797.8911       43.587413       64.903622       0
       7809.7618      -369.51303       58.150407       0
       7821.6325       415.90732       44.223659       0
       7833.5032       186.14936       52.869433       0
       7845.3738      -67.206908       39.437387       0
       7857.2445       265.39782       47.871929       0
       7869.1152       11.766422       36.103049       0
       7880.9858       59.577125       43.655997       0
       7892.8565       209.85322       44.818361       0
       7904.7272       103.16912       41.032300       0
       7916.5979       103.53337       31.588077       0
       7928.4685       69.887812       38.929042       0
       7940.3392       127.09764       30.037344       0
       7952.2099       181.30010       37.160278       0
       7964.0806       172.01336       28.686224       0
       7975.9512       81.077140       35.433456       0
       7987.8219       216.93644       27.964805       0
       7999.6926       40.083862       34.084541       0
       8011.5633       113.87520       26.999142       0
       8023.4339       50.003781       33.122078       0
       8035.3046       158.68900       26.233685       0
       8047.1753       154.91360       32.655132       0
       8059.0459       147.61946       25.752299       0
       8070.9166       86.314978       32.085417       0
       8082.7873       162.76645       26.000159       0
       8094.6580       99.702595       31.482958       0
       8106.5286       261.43675       24.348342       0
       8118.3993       130.04130       29.892635       0
       8130.2700       106.90165       23.801548       0
       8142.1407       23.248961       29.333920       0
       8154.0113       98.025834       23.389662       1
       8165.8820       237.11239       29.115745       1
       8177.7527       131.59608       23.065639       1
       8189.6233       99.257621       28.287781       1
       8201.4940       110.99756       22.464668       1
       8213.3647       37.608899       27.710818       1
       8225.2354       156.71604       22.200853       1
       8237.1060       119.50871       27.253670       1
       8248.9767       114.30222       23.278243       1
       8260.8474       145.51516       26.682070       1
       8272.7181       114.56145       21.051033       1
       8284.5887       137.61858       26.039731       1
       8296.4594       76.875840       20.514856       1
       8308.3301       141.26308       25.424331       1
       8320.2008       162.85288       20.317690       1
       8332.0714       116.73910       24.972874       1
       8343.9421       162.90265       19.950863       1
       8355.8128       69.855570       24.232319       1
       8367.6834       118.82858       19.620308       1
       8379.5541       142.08328       24.356366       1
       8391.4248       33.278586       25.181087       1
       8403.2955       145.70835       24.092319       1
       8415.1661       64.764844       19.039760       1
       8427.0368       42.158656       19.506582       1
       8438.9075       129.15360       18.962625       1
       8450.7782       100.66235       23.125712       1
       8462.6488       168.31010       29.224312       1
       8474.5195       108.81853       22.936311       1
       8486.3902       152.11009       18.355351       1
       8498.2608       124.57656       22.712153       1
       8510.1315       99.591608       18.042392       1
       8522.0022       181.00507       21.834095       1
       8533.8729       75.902425       18.211387       1
       8545.7435       126.97633       21.950391       1
       8557.6142       119.94939       17.826049       1
       8569.4849       96.212868       22.111409       1
       8581.3556       121.46168       17.763126       1
       8593.2262       115.09877       22.073776       1
       8605.0969       107.40543       19.056454       1
       8616.9676       150.12029       10015760.       1
       8628.8383       118.86995       17.656558       1
       8640.7089       107.60395       21.690748       1
       8652.5796       167.68393       22.567115       1
       8664.4503       73.217905       18.013903       1
       8676.3209       148.71106       17.373862       1
       8688.1916       142.62289       21.380822       1
       8700.0623       140.39718       17.155475       1
       8711.9330       145.75590       21.186463       1
       8723.8036       165.83477       16.853567       1
       8735.6743       158.35966       20.840567       1
       8747.5450       138.60922       16.573165       1
       8759.4157       115.99916       20.497641       1
       8771.2863       175.15308       16.482724       1
       8783.1570       65.699752       16.754526       1
       8795.0277       147.90845       16.293246       1
       8806.8983       151.48758       20.108291       1
       8818.7690       142.57561       16.082083       1
       8830.6397       125.44861       19.967389       1
       8842.5104       155.70072       15.985759       1
       8854.3810       98.344776       19.505409       1
       8866.2517       155.61400       15.831243       1
       8878.1224       146.27294       19.443172       1
       8889.9931       166.72994       15.779460       1
       8901.8637       122.27224       19.345998       1
       8913.7344       158.35233       15.580246       1
       8925.6051       136.05170       19.328839       1
       8937.4758       151.83161       15.479544       1
       8949.3464       136.04772       19.123893       1
       8961.2171       142.92865       15.238843       1
       8973.0878       121.59860       18.849188       1
       8984.9584       147.62113       15.152084       1
       8996.8291       171.33332       18.851328       1
       9008.6998       158.44207       15.152822       1
       9020.5705       93.209170       18.504271       1
       9032.4411       166.71844       15.121686       1
       9044.3118       146.86561       18.730860       1
       9056.1825       160.17535       15.019092       1
       9068.0532       169.87818       18.706933       1
       9079.9238       187.45116       15.024687       1
       9091.7945       135.62948       18.508598       1
       9103.6652       158.12211       14.750353       1
       9115.5358       127.83006       18.837002       1
       9127.4065       149.97609       14.989454       1
       9139.2772       130.60064       18.746581       1
       9151.1479       109.92613       15.826686       1
       9163.0185       147.16942       18.558420       1
       9174.8892       142.94234       14.706030       1
       9186.7599       88.393292       14.820428       1
       9198.6306       151.12654       14.550317       1
       9210.5012       206.00608       18.403614       1
       9222.3719       116.60232       14.360071       1
       9234.2426       174.31277       20.652561       1
       9246.1133       155.59963       14.428815       1
       9257.9839       165.24662       18.105133       1
       9269.8546       113.53207       14.199178       1
       9281.7253       107.67010       17.788689       1
       9293.5959       155.75161       15.392246       1
       9305.4666       135.05003       17.866547       1
       9317.3373       137.93967       14.153754       1
       9329.2080       100.76246       17.569541       1
       9341.0786       91.396277       13.990788       1
       9352.9493       127.41129       17.480903       1
       9364.8200       129.37286       14.985167       1
       9376.6907       134.45704       17.657926       1
       9388.5613       101.73518       13.832441       1
       9400.4320       211.93607       17.766830       1
       9412.3027       121.08942       13.789902       1
       9424.1733       137.28139       17.412774       1
       9436.0440       128.77978       13.685817       1
       9447.9147       121.82384       17.211244       1
       9459.7854       137.75953       13.715629       1
       9471.6560       155.36613       17.318755       1
       9483.5267       120.19262       13.542179       1
       9495.3974       152.60582       17.191740       1
       9507.2681       130.33236       13.554728       1
       9519.1387       175.78767       17.176932       1
       9531.0094       123.85866       14.470421       1
       9542.8801       85.807110       16.756913       1
       9554.7508       152.21113       13.431322       1
       9566.6214       130.46525       16.851792       1
       9578.4921       122.50721       16.762308       1
       9590.3628       134.97534       16.753076       1
       9602.2334       110.63751       13.244808       1
       9614.1041       92.331415       16.218804       1
       9625.9748       150.16092       13.296978       1
       9637.8455       125.42379       16.588453       1
       9649.7161       145.89345       13.303182       1
       9661.5868       126.33401       16.427856       1
       9673.4575       142.30927       13.143245       1
       9685.3282       133.48032       16.534039       1
       9697.1988       125.32623       13.152226       1
       9709.0695       140.45281       16.419680       1
       9720.9402       140.89420       13.161243       1
       9732.8108       152.02230       16.489317       1
       9744.6815       135.11026       13.060845       1
       9756.5522       117.27606       16.261726       1
       9768.4229       131.78045       13.039872       1
       9780.2935       112.00382       16.122407       1
       9792.1642       119.33303       12.972610       1
       9804.0349       113.62011       16.186145       1
       9815.9056       137.81627       12.989404       1
       9827.7762       139.62086       16.178140       1
       9839.6469       134.42681       12.962971       1
       9851.5176       84.874340       6929351.5       1
       9863.3883       133.10832       12.938300       1
       9875.2589       96.470206       15.851925       1
       9887.1296       122.14812       13.883981       1
       9899.0003       73.914817       12.708012       1
       9910.8709       148.68675       12.952191       1
       9922.7416       94.392849       12.898077       1
       9934.6123       131.21964       12.873504       1
       9946.4830       132.59418       15.860617       1
       9958.3536       149.81100       12.853993       1
       9970.2243       116.74385       15.439831       1
       9982.0950       134.64178       12.683311       1
       9993.9657       128.38358       15.670086       1
       10005.836       147.07511       12.699554       1
       10017.707       112.58815       13.392094       1
       10029.578       145.82402       12.645521       1
       10041.448       141.56503       15.457285       1
       10053.319       168.90567       13.551185       1
       10065.190       142.59208       15.647154       1
       10077.060       136.23135       12.570864       1
       10088.931       119.37761       15.472132       1
       10100.802       162.45498       12.682537       1
       10112.672       148.50752       15.151110       1
       10124.543       134.09403       12.190929       1
       10136.414       134.88562       14.935267       1
       10148.284       139.98066       12.146376       1
       10160.155       151.00159       14.988043       1
       10172.026       116.99395       13.223638       1
       10183.896       133.44886       14.910568       1
       10195.767       124.05006       13.233360       1
       10207.638       116.10381       14.560534       1
       10219.508       117.92105       11.991104       1
       10231.379       126.40127       14.786129       1
       10243.250       106.84675       11.884665       1
       10255.120       154.02910       14.860229       1
       10266.991       130.96751       12.975510       1
       10278.862       148.67515       14.775971       1
       10290.732       157.71792       13.824293       1
       10302.603       133.55664       14.611074       1
       10314.474       122.49554       16.552377       1
       10326.345       110.37833       14.422807       1
       10338.215       106.59549       15.657633       1
       10350.086       114.37788       14.349971       1
       10361.957       127.39129       11.701840       1
       10373.827       107.50568       14.374986       1
       10385.698       121.69483       11.773844       1
       10397.569       136.40767       14.457586       1
       10409.439       128.22422       14.992535       1
       10421.310       106.24167       14.359150       1
       10433.181       123.34360       11.580317       1
       10445.051       152.40185       14.503954       1
       10456.922       141.04578       11.653492       1
       10468.793       114.58007       14.253703       1
       10480.663       132.22696       11.593473       1
       10492.534       116.20648       14.197873       1
       10504.405       131.63344       12.504730       1
       10516.275       151.41460       14.495251       1
       10528.146       106.90473       11.518623       1
       10540.017       123.78306       14.398528       1
       10551.887       104.48631       11.466958       1
       10563.758       140.49685       14.454699       1
       10575.629       126.30284       11.561405       1
       10587.499       141.44954       14.433015       1
       10599.370       132.13635       11.551508       1
       10611.241       89.254218       14.125679       1
       10623.111       137.00877       11.495398       1
       10634.982       145.97753       14.283250       1
       10646.853       113.50050       11.363420       1
       10658.723       147.65876       14.279834       1
       10670.594       132.16031       11.350665       1
       10682.465       126.93560       14.187521       1
       10694.335       123.37635       11.367979       1
       10706.206       136.11448       14.060345       1
       10718.077       121.57023       11.328554       1
       10729.947       128.62803       13.956764       1
       10741.818       138.76343       11.437565       1
       10753.689       142.09026       14.207199       1
       10765.559       143.92277       11.380784       1
       10777.430       108.86548       14.003813       1
       10789.301       141.41888       11.334693       1
       10801.171       138.76158       14.101167       1
       10813.042       112.86026       11.197166       1
       10824.913       143.16753       14.142628       1
       10836.783       124.20112       11.298871       1
       10848.654       115.31654       13.976494       1
       10860.525       124.21593       11.254118       1
       10872.395       123.06777       13.790093       1
       10884.266       134.44792       11.251406       1
       10896.137       145.34838       13.957201       1
       10908.007       139.15253       11.299766       1
       10919.878       169.57527       14.142818       1
       10931.749       146.43177       11.276874       1
       10943.620       120.87988       13.982565       1
       10955.490       134.04856       11.094904       1
       10967.361       127.64094       14.021301       1
       10979.232       149.79379       11.309487       1
       10991.102       147.09850       14.069112       1
       11002.973       135.59276       11.254745       1
       11014.844       137.05214       13.965500       1
       11026.714       153.86693       11.324118       1
       11038.585       150.56678       13.965357       1
       11050.456       148.57478       11.256091       1
       11062.326       120.14356       13.850246       1
       11074.197       152.06299       11.315288       1
       11086.068       131.71307       13.937747       1
       11097.938       159.87995       11.294530       1
       11109.809       150.48649       14.078113       1
       11121.680       135.27015       11.362269       1
       11133.550       149.50162       14.500916       1
       11145.421       114.61063       11.401801       1
       11157.292       123.31385       14.418991       1
       11169.162       98.368448       11.316801       1
       11181.033       146.44623       14.538648       1
       11192.904       135.17771       11.261677       1
       11204.774       136.56760       14.418519       0
       11216.645       109.81374       11.349492       0
       11228.516       128.47840       14.349747       0
       11240.386       136.00863       11.496784       0
       11252.257       86.666742       14.212354       0
       11264.128       145.75605       11.535749       0
       11275.998       115.69006       14.293366       0
       11287.869       122.46802       11.425200       0
       11299.740       137.68331       14.513566       0
       11311.610       95.183862       11.417394       0
       11323.481       102.56409       14.463104       0
       11335.352       110.13126       11.695268       0
       11347.222       113.56227       15.074645       0
       11359.093       114.81094       12.317430       0
       11370.964       140.41925       19.741005       0
       11382.834       111.10470       14.397439       0
       11394.705       168.16636       21.694894       0
       11406.576       133.88389       14.732804       0
       11418.446       98.155814       19.560724       0
       11430.317       149.74543       16.718797       0
       11442.188       165.51930       22.355063       0
       11454.058       198.20690       18.889889       0
       11465.929       93.116869       24.812200       0
       11477.800       267.61833       20.997885       0
       11489.670       121.59511       27.518961       0
       11501.541       140.41466       24.737188       0
       11513.412       51.305324       30.424611       0
       11525.282       73.925747       25.856234       0
       11537.153       17.932756       35.202622       0
       11549.024       222.93836       30.548064       0
       11560.895       184.29883       42.824673       0
       11572.765       273.49490       37.438177       0
       11584.636       233.86756       52.795366       0
       11596.507       121.32633       46.288289       0
       11608.377      -99.985544       63.923043       0
       11620.248      -177.07128       55.923680       0
       11632.119       655.88158       78.465470       0
       11643.989      -358.38648       72.342696       0
       11655.860      -398.33782       98.069969       0
       11667.731      -524.58264       86.788615       0
       11679.601      -1287.5564       124.69021       0
       11691.472      -940.77013       113.07230       0
       11703.343       1803.1926       163.55499       0
       11715.213       1029.3789       145.59185       0
       11727.084       2487.1952       194.90925       0
       11738.955       262.88135       208.02727       0
