#WAVELENGTH FLUX ERROR MASK
       7543.7762       4261.3964       9762.4844       0
       7555.9709      -5082.7186       8384.7710       0
       7568.1656       536.41614       5837.9027       0
       7580.3603       4063.9789       5856.9603       0
       7592.5549       1519.0285       3780.7969       0
       7604.7496       1112.6599       3965.5968       0
       7616.9443      -1518.6399       2659.1804       0
       7629.1390       996.65330       3664.6553       0
       7641.3337       20.265282       2072.2099       0
       7653.5283       31.341487       2125.7232       0
       7665.7230      -700.14496       1705.6569       0
       7677.9177       318.95534       1489.8685       0
       7690.1124      -696.39156       986.60848       0
       7702.3070       748.14717       1042.9625       0
       7714.5017       81.349018       715.68495       0
       7726.6964       732.67920       793.94801       0
       7738.8911       557.12022       567.58885       0
       7751.0857       291.38779       644.56262       0
       7763.2804       326.95539       474.36768       0
       7775.4751       210.24363       548.01183       0
       7787.6698       351.08329       426.49886       0
       7799.8644       222.31540       407.55966       0
       7812.0591       149.39294       328.63707       0
       7824.2538       217.84839       368.61140       0
       7836.4485       446.19340       268.04951       0
       7848.6431       39.549574       297.55879       0
       7860.8378       168.31271       216.71284       0
       7873.0325       183.52054       211.27059       0
       7885.2272       110.12902       182.43911       0
       7897.4218       272.13940       215.70353       0
       7909.6165       33.189907       159.37220       0
       7921.8112       203.13478       190.54986       0
       7934.0059       137.98056       144.64106       0
       7946.2006       222.83613       172.92725       0
       7958.3952       60.771157       158.01490       0
       7970.5899       107.38131       157.66218       0
       7982.7846       148.61810       121.91489       0
       7994.9793       48.975940       146.01187       0
       8007.1739       34.615254       134.93753       0
       8019.3686       64.693966       136.58501       0
       8031.5633       63.039475       106.87060       0
       8043.7580       149.40978       131.08301       0
       8055.9526       187.89295       108.69668       0
       8068.1473       145.62067       126.87018       0
       8080.3420       135.23918       110.27913       0
       8092.5367       160.82290       122.55781       0
       8104.7313       244.33836       102.00646       0
       8116.9260       201.89232       119.71235       0
       8129.1207       144.83666       97.595105       0
       8141.3154       106.05662       114.96747       0
       8153.5100       97.889570       93.929140       1
       8165.7047       173.67275       110.85150       1
       8177.8994       93.145530       86.689194       1
       8190.0941       187.56408       107.72134       1
       8202.2887       141.20095       116.14318       1
       8214.4834       31.386808       90.389250       1
       8226.6781       135.29779       80.046333       1
       8238.8728       105.08675       97.052755       1
       8251.0675       102.06329       76.550288       1
       8263.2621       95.123879       92.732403       1
       8275.4568       115.67556       72.025523       1
       8287.6515       201.60950       101.46847       1
       8299.8462       87.608239       68.831947       1
       8312.0408       108.71831       84.809701       1
       8324.2355       90.759799       65.972634       1
       8336.4302       184.44598       80.779549       1
       8348.6249       92.461006       63.192950       1
       8360.8195       157.87595       78.264653       1
       8373.0142       95.713699       61.515865       1
       8385.2089       97.026884       75.993987       1
       8397.4036       105.54426       70.140285       1
       8409.5982       95.324530       73.877671       1
       8421.7929       114.87170       58.354569       1
       8433.9876       144.05500       71.729173       1
       8446.1823       175.99912       56.949733       1
       8458.3769       41.555087       53.227921       1
       8470.5716       151.43694       64.107617       1
       8482.7663       149.14712       67.412085       1
       8494.9610       139.45421       58.214731       1
       8507.1556       134.86151       66.126595       1
       8519.3503       106.04212       52.195037       1
       8531.5450       106.34454       64.698714       1
       8543.7397       136.03557       51.559604       1
       8555.9343       166.67111       64.336580       1
       8568.1290       67.457267       50.879162       1
       8580.3237       148.57471       64.600516       1
       8592.5184       151.01871       51.100737       1
       8604.7131       176.75246       64.416010       1
       8616.9077       115.20056       50.636226       1
       8629.1024       142.61859       63.611603       1
       8641.2971       137.37364       63.659976       1
       8653.4918       145.04435       62.473038       1
       8665.6864       124.80493       49.416356       1
       8677.8811       165.84428       60.894624       1
       8690.0758       158.58567       47.815687       1
       8702.2705       93.491985       58.425801       1
       8714.4651       111.70794       45.912951       1
       8726.6598       139.57920       56.730684       1
       8738.8545       113.24777       44.423853       1
       8751.0492       108.91757       54.713374       1
       8763.2438       107.00042       43.283587       1
       8775.4385       83.625976       53.467399       1
       8787.6332       127.22368       54.017877       1
       8799.8279       134.98293       52.991020       1
       8812.0225       104.50781       41.757244       1
       8824.2172       137.17344       61.533174       1
       8836.4119       121.29716       41.023597       1
       8848.6066       58.968350       42.919649       1
       8860.8012       103.40094       42.201407       1
       8872.9959       129.72711       18804522.       1
       8885.1906       116.46514       39.329332       1
       8897.3853       76.458977       48.688055       1
       8909.5800       124.69346       38.892103       1
       8921.7746       144.43405       48.415909       1
       8933.9693       119.93428       38.063927       1
       8946.1640       116.43015       47.186479       1
       8958.3587       122.31626       37.357191       1
       8970.5533       123.35231       46.506465       1
       8982.7480       101.29002       36.428322       1
       8994.9427       98.254504       45.858837       1
       9007.1374       120.06535       43.714788       1
       9019.3320       150.99912       45.529613       1
       9031.5267       157.45862       36.314003       1
       9043.7214       105.07361       44.364610       1
       9055.9161       155.30402       35.802050       1
       9068.1107       126.72853       44.092354       1
       9080.3054       145.69435       35.126713       1
       9092.5001       153.58446       43.422928       1
       9104.6948       137.21002       34.341256       1
       9116.8894       151.83950       42.474066       1
       9129.0841       158.48541       33.738999       1
       9141.2788       176.23164       41.862457       1
       9153.4735       143.04991       38.719406       1
       9165.6681       131.61176       40.693316       1
       9177.8628       153.31162       34.073203       1
       9190.0575       122.69451       39.874440       1
       9202.2522       148.27566       31.944811       1
       9214.4469       107.12338       39.295266       1
       9226.6415       136.18349       31.460823       1
       9238.8362       144.45849       38.937608       1
       9251.0309       171.92082       31.302563       1
       9263.2256       143.32569       38.392413       1
       9275.4202       136.34783       31.080482       1
       9287.6149       138.83796       38.945269       1
       9299.8096       147.60545       30.923715       1
       9312.0043       140.38910       38.424497       1
       9324.1989       151.53486       30.618544       1
       9336.3936       118.68604       38.066311       1
       9348.5883       159.22645       30.505408       1
       9360.7830       128.27098       37.959514       1
       9372.9776       152.12452       30.104443       1
       9385.1723       161.84872       37.859449       1
       9397.3670       165.30833       36.243727       1
       9409.5617       152.70725       42.219058       1
       9421.7563       151.04111       31.814689       1
       9433.9510       172.10226       42.472547       1
       9446.1457       151.14750       28.959298       1
       9458.3404       151.64792       36.137114       1
       9470.5350       141.04462       28.584417       1
       9482.7297       151.57259       35.890536       1
       9494.9244       166.97512       29.757597       1
       9507.1191       120.50612       34.485614       1
       9519.3138       145.61057       27.866233       1
       9531.5084       111.37356       34.468838       1
       9543.7031       147.45508       27.554218       1
       9555.8978       121.33007       34.093282       1
       9568.0925       105.50106       26.999518       1
       9580.2871       120.03450       33.877837       1
       9592.4818       136.66954       26.833331       1
       9604.6765       150.24312       33.705053       1
       9616.8712       126.13365       26.643451       1
       9629.0658       164.24230       33.602466       1
       9641.2605       138.00481       26.446386       1
       9653.4552       128.44514       33.107978       1
       9665.6499       127.24698       26.294244       1
       9677.8445       104.43606       28.158931       1
       9690.0392       136.13279       26.021378       1
       9702.2339       147.84398       32.650495       1
       9714.4286       159.59359       26.029163       1
       9726.6232       163.32661       32.286884       1
       9738.8179       148.30482       27.333947       1
       9751.0126       122.19528       31.690506       1
       9763.2073       139.18146       25.309521       1
       9775.4019       146.14098       31.780772       1
       9787.5966       149.84143       25.239605       1
       9799.7913       145.13998       31.477132       1
       9811.9860       140.18282       25.267367       1
       9824.1807       132.15457       31.105174       1
       9836.3753       142.44499       25.011658       1
       9848.5700       115.72641       31.044124       1
       9860.7647       149.56222       24.960356       1
       9872.9594       127.91815       30.957903       1
       9885.1540       137.94255       24.740907       1
       9897.3487       147.62308       30.899163       1
       9909.5434       135.91703       24.502008       1
       9921.7381       63.964412       26.711359       1
       9933.9327       129.81231       24.227921       1
       9946.1274       136.38730       30.293839       1
       9958.3221       125.61959       23.897947       1
       9970.5168       144.44707       30.258574       1
       9982.7114       134.15743       23.793576       1
       9994.9061       156.18481       30.036038       1
       10007.101       119.26083       23.549966       1
       10019.295       110.62106       27.052542       1
       10031.490       152.94174       23.792239       1
       10043.685       128.35808       29.644948       1
       10055.879       133.81580       23.478487       1
       10068.074       93.195064       26.718329       1
       10080.269       132.63793       23.591455       1
       10092.464       127.97111       29.467918       1
       10104.658       135.94948       23.339938       1
       10116.853       120.54477       29.307698       1
       10129.048       127.95783       23.142266       1
       10141.242       124.16685       28.971393       1
       10153.437       136.54111       23.041550       1
       10165.632       145.08393       29.051209       1
       10177.826       123.26019       22.846345       1
       10190.021       165.76363       28.954401       1
       10202.216       136.41756       22.243133       1
       10214.410       131.60992       27.696197       1
       10226.605       160.29113       22.200892       1
       10238.800       152.74098       27.557100       1
       10250.994       135.89321       21.874561       1
       10263.189       167.28391       27.282372       1
       10275.384       147.01551       22.920093       1
       10287.578       144.19112       27.250078       1
       10299.773       153.31040       25.740172       1
       10311.968       140.43891       27.142815       1
       10324.162       142.72687       27.059560       1
       10336.357       158.18214       27.081903       1
       10348.552       152.67251       22.636379       1
       10360.746       165.69997       27.058570       1
       10372.941       162.05232       21.585691       1
       10385.136       146.52410       26.633134       1
       10397.330       150.02613       21.704377       1
       10409.525       158.45148       26.805140       1
       10421.720       146.38002       21.865113       1
       10433.914       125.23542       26.639858       1
       10446.109       139.18437       21.715266       1
       10458.304       106.12624       26.517634       1
       10470.498       116.51612       21.220158       1
       10482.693       121.69369       26.674513       1
       10494.888       114.06243       21.292704       1
       10507.083       125.55766       26.705663       1
       10519.277       122.74293       21.335818       1
       10531.472       129.78120       26.727823       1
       10543.667       128.23074       21.296088       1
       10555.861       120.63073       26.555322       1
       10568.056       123.87787       27.706507       1
       10580.251       109.94478       26.145582       1
       10592.445       131.66965       20.927028       1
       10604.640       106.54668       25.886477       1
       10616.835       114.02874       20.590111       1
       10629.029       121.04797       25.845552       1
       10641.224       106.81192       20.756919       1
       10653.419       135.39897       25.767623       1
       10665.613       117.05997       20.392334       1
       10677.808       136.05538       25.890760       1
       10690.003       108.48976       20.404095       1
       10702.197       120.80002       25.518421       1
       10714.392       116.13083       20.363139       1
       10726.587       120.06975       25.523554       1
       10738.781       130.11685       20.498178       1
       10750.976       121.95201       25.571341       1
       10763.171       105.71539       20.267335       1
       10775.365       111.91916       25.347947       1
       10787.560       137.24186       20.389905       1
       10799.755       124.53198       29.838977       1
       10811.949       119.42564       20.152987       1
       10824.144       107.77199       24.959851       1
       10836.339       119.50798       20.014088       1
       10848.533       128.01552       25.104773       1
       10860.728       129.21094       19.967814       1
       10872.923       134.35910       25.117857       1
       10885.117       119.71154       19.994469       1
       10897.312       113.84863       24.905379       1
       10909.507       140.62226       19.936961       1
       10921.701       154.24089       25.091286       1
       10933.896       167.23557       20.112835       1
       10946.091       133.94749       24.830634       1
       10958.286       162.67411       20.062548       1
       10970.480       150.62120       24.859820       1
       10982.675       155.01023       19.968031       1
       10994.870       140.12943       24.746763       1
       11007.064       137.02485       19.823363       1
       11019.259       132.07061       24.709280       1
       11031.454       145.21903       19.850106       1
       11043.648       158.47519       24.961575       1
       11055.843       152.27033       19.891482       1
       11068.038       134.30114       24.804412       1
       11080.232       138.90153       19.894539       1
       11092.427       136.98910       24.789985       1
       11104.622       137.47710       19.857086       1
       11116.816       149.39615       24.757997       1
       11129.011       133.35303       20.904519       1
       11141.206       137.13942       25.259187       1
       11153.400       140.12851       20.143187       1
       11165.595       140.03865       25.318912       1
       11177.790       150.55101       20.249651       1
       11189.984       131.24188       25.247491       1
       11202.179       136.48771       20.093322       0
       11214.374       122.16795       25.086718       0
       11226.568       114.17653       20.013047       0
       11238.763       129.03914       25.195219       0
       11250.958       139.97496       20.241844       0
       11263.152       142.10223       25.552503       0
       11275.347       148.97551       22.007009       0
       11287.542       136.07241       34.021369       0
       11299.736       136.40159       22.606578       0
       11311.931       175.78229       35.027645       0
       11324.126       144.90351       26.264766       0
       11336.320       148.96203       36.021552       0
       11348.515       142.88714       32.037756       0
       11360.710       157.14455       45.428530       0
       11372.905       121.33850       40.807407       0
       11385.099       109.88131       57.951344       0
       11397.294       146.72634       52.875982       0
       11409.489       180.94493       74.921489       0
       11421.683       201.27481       66.615540       0
       11433.878       148.99615       92.145691       0
       11446.073       101.08691       80.881922       0
       11458.267       52.723462       114.60059       0
       11470.462       178.31570       106.26688       0
       11482.657       230.21951       157.14108       0
       11494.851       122.97047       150.48403       0
       11507.046       362.50258       234.75869       0
       11519.241       203.74998       233.03488       0
       11531.435       422.65896       366.46461       0
       11543.630       278.42744       362.35104       0
       11555.825      -65.294985       649.54809       0
       11568.019       149.36185       542.70262       0
       11580.214       186.02879       971.80322       0
       11592.409       902.13054       833.04797       0
       11604.603       185.73036       1365.6069       0
       11616.798       1095.7299       1432.6442       0
       11628.993      -1301.5851       2331.0876       0
       11641.187       897.45737       2501.8286       0
       11653.382       1418.1968       4015.2559       0
       11665.577      -426.54095       3676.9411       0
       11677.771       3907.0862       4852.9710       0
       11689.966      -630.82439       3830.1218       0
       11702.161       2177.3914       4697.5352       0
       11714.355       342.27734       3619.9411       0
       11726.550      -1082.4502       4594.7542       0
       11738.745       122.27676       3933.7948       0
       11750.939       1900.0927       5501.0729       0
       11763.134       1012.9992       6243.5712       0
       11775.329      -803.36518       7633.2375       0
       11787.523       2340.3478       7373.5201       0
       11799.718      -3816.3158       10733.273       0
       11811.913      -5618.0287       10372.251       0
       11824.108       8778.6794       14221.159       0
       11836.302      -2222.7887       13263.445       0
       11848.497       20060.645       20786.708       0
       11860.692       15249.999       24766.400       0
       11872.886      -1217.0231       30613.451       0
       11885.081      -11719.140       28073.055       0
       11897.276      -3492.3478       38302.143       0
       11909.470       11778.081       31344.291       0
       11921.665       11760.579       38768.968       0
