#WAVELENGTH FLUX ERROR MASK
       10193.918       383.58585       269.77808       0
       10216.680       801.61847       251.65268       0
       10239.442       3457.0588       238.26676       0
       10262.204      -2603.6300       215.21467       0
       10284.966      -309.54727       204.22708       0
       10307.728      -420.56177       188.02017       0
       10330.490       302.69660       182.68889       0
       10353.252       402.91242       169.80859       0
       10376.014       1652.6749       166.95134       0
       10398.776      -229.86986       154.71886       0
       10421.538       513.57084       150.20997       0
       10444.300      -713.97186       119.40043       0
       10467.062       324.64625       129.32462       0
       10489.825      -767.91360       101.75002       0
       10512.587      -358.44187       107.96150       0
       10535.349       422.00348       100.69900       0
       10558.111       29.243097       94.765934       0
       10580.873       543.32463       87.791468       0
       10603.635      -180.44528       72.368920       0
       10626.397       249.58262       78.997848       0
       10649.159       95.987625       76.865045       0
       10671.921       99.903832       70.246201       0
       10694.683       414.74459       67.280617       0
       10717.445       273.46386       60.970174       0
       10740.207       44.014210       55.892850       0
       10762.969       94.518647       50.661269       0
       10785.731       127.36541       47.555586       0
       10808.493       131.77154       42.874819       0
       10831.255       114.99316       40.867942       0
       10854.017       123.61846       37.559426       0
       10876.779       211.16603       37.053623       0
       10899.541      0.64461972       23.892233       0
       10922.303       157.81448       34.033775       0
       10945.065       153.13561       32.223425       0
       10967.827       206.74905       32.018400       0
       10990.590       122.90046       30.035172       0
       11013.352       133.65967       29.718687       1
       11036.114       151.15728       28.226805       1
       11058.876       126.25311       27.887961       1
       11081.638       159.31675       26.767304       1
       11104.400       156.74584       26.783417       1
       11127.162       164.50148       25.782650       1
       11149.924       135.13586       25.909909       1
       11172.686       157.85136       25.130279       1
       11195.448       116.46163       25.245797       1
       11218.210       162.41442       24.803566       1
       11240.972       142.61226       6711495.4       1
       11263.734       133.63096       24.430279       1
       11286.496       118.49399       24.822883       1
       11309.258       147.74558       24.235793       1
       11332.020       176.96254       24.821855       1
       11354.782       163.11489       24.028193       1
       11377.544       137.72968       24.438267       1
       11400.306       149.37531       23.740120       1
       11423.068       133.15515       24.195407       1
       11445.830       119.18570       23.444056       1
       11468.592       168.63775       24.108785       1
       11491.355       151.66735       23.521533       1
       11514.117       140.54203       23.902878       1
       11536.879       114.25451       20.310764       1
       11559.641       142.45204       23.845836       1
       11582.403       140.77053       23.341155       1
       11605.165       143.30027       23.805457       1
       11627.927       134.97347       23.011006       1
       11650.689       169.28531       23.419808       1
       11673.451       144.01206       22.789432       1
       11696.213       172.06820       5546349.1       1
       11718.975       155.42841       22.619726       1
       11741.737       180.01004       23.085530       1
       11764.499       159.50124       22.533839       1
       11787.261       144.71937       22.486905       1
       11810.023       150.20420       22.186608       1
       11832.785       145.74849       22.265576       1
       11855.547       159.13353       21.964704       1
       11878.309       153.01318       22.228923       1
       11901.071       143.48946       21.773405       1
       11923.833       144.12690       21.883758       1
       11946.595       168.98881       21.668762       1
       11969.357       136.64202       21.811863       1
       11992.120       175.76214       21.657121       1
       12014.882       163.09770       21.758080       1
       12037.644       166.15808       21.496254       1
       12060.406       175.05363       21.721043       1
       12083.168       123.56322       18.968151       1
       12105.930       145.02254       21.360386       1
       12128.692       149.59181       21.085287       1
       12151.454       106.79545       19.307600       1
       12174.216       146.09227       20.862836       1
       12196.978       137.16232       21.159699       1
       12219.740       138.07062       20.894518       1
       12242.502       137.87173       21.088046       1
       12265.264       154.27090       20.858472       1
       12288.026       155.95475       21.035588       1
       12310.788       127.49075       20.479544       1
       12333.550       166.97635       21.148576       1
       12356.312       159.54854       20.664860       1
       12379.074       148.51179       21.260256       1
       12401.836       168.35606       20.597791       1
       12424.598       173.92552       21.334505       1
       12447.360       186.09486       20.706268       1
       12470.122       161.50665       21.217790       1
       12492.885       182.84080       20.747262       1
       12515.647       195.00040       21.497999       1
       12538.409       186.35941       19.065089       1
       12561.171       251.67975       22.363778       1
       12583.933       510.20311       23.887495       1
       12606.695       625.57323       27.180023       1
       12629.457       992.88411       29.836988       1
       12652.219       1427.2753       33.299248       1
       12674.981       919.26518       28.678375       1
       12697.743       782.47296       27.651624       1
       12720.505       640.16592       25.688874       1
       12743.267       722.67403       25.464359       1
       12766.029       355.93291       21.909035       1
       12788.791       262.54317       21.439152       1
       12811.553       214.14630       20.436921       1
       12834.315       187.46602       20.755870       1
       12857.077       177.75413       19.938976       1
       12879.839       154.66874       20.492680       1
       12902.601       169.24050       19.739101       1
       12925.363       148.38897       20.236462       1
       12948.125       158.85703       19.661046       1
       12970.887       172.49192       20.272033       1
       12993.650       159.68205       19.503158       1
       13016.412       159.93476       20.103435       1
       13039.174       152.82712       19.371274       1
       13061.936       114.22930       16.886232       1
       13084.698       146.92414       19.249821       1
       13107.460       133.24680       19.508427       1
       13130.222       167.18901       19.249155       1
       13152.984       152.74800       19.625209       1
       13175.746       143.55485       19.005168       1
       13198.508       158.06134       19.399351       1
       13221.270       135.41235       18.767352       1
       13244.032       157.88592       19.294625       1
       13266.794       155.28089       18.874513       1
       13289.556       158.35179       19.353861       1
       13312.318       133.42745       18.529941       1
       13335.080       138.84747       19.199332       1
       13357.842       145.62295       18.747198       1
       13380.604       154.02802       19.249118       1
       13403.366       121.10151       18.539401       1
       13426.128       144.11038       19.056759       1
       13448.890       143.94056       18.642475       1
       13471.653       125.28008       18.740725       1
       13494.415       149.32694       18.536508       1
       13517.177       131.30257       18.835452       1
       13539.939       157.31551       18.585293       1
       13562.701       160.96769       18.938337       1
       13585.463       157.55684       18.594660       1
       13608.225       159.74662       19.002943       1
       13630.987       181.90893       18.748906       1
       13653.749       163.14106       19.065135       1
       13676.511       161.09733       18.632672       1
       13699.273       173.69997       19.115413       1
       13722.035       190.01067       18.786587       1
       13744.797       173.09483       19.056351       1
       13767.559       177.60033       18.681984       1
       13790.321       176.56457       19.119092       1
       13813.083       159.78250       18.594067       1
       13835.845       140.84787       18.870879       1
       13858.607       160.31337       18.351138       1
       13881.369       156.67442       18.885792       1
       13904.131       172.05857       18.583029       1
       13926.893       135.01120       18.708295       1
       13949.655       127.55062       18.328527       1
       13972.418       154.38549       18.768945       1
       13995.180       142.73989       18.106096       1
       14017.942       134.10717       18.416024       1
       14040.704       133.43003       18.051606       1
       14063.466       139.42805       18.608720       1
       14086.228       127.25923       18.024360       1
       14108.990       140.32026       18.538809       1
       14131.752       142.14899       18.139191       1
       14154.514       118.59562       18.110353       1
       14177.276       146.81196       18.181527       1
       14200.038       138.65190       18.126208       1
       14222.800       140.11934       18.087974       1
       14245.562       90.523559       15.541677       1
       14268.324       148.05919       18.100888       1
       14291.086       137.69681       18.380488       1
       14313.848       144.77460       17.833596       1
       14336.610       147.85907       18.330992       1
       14359.372       146.97797       17.942918       1
       14382.134       119.46331       18.003985       1
       14404.896       141.20336       17.940864       1
       14427.658       129.34429       18.049943       1
       14450.420       140.41676       17.596598       1
       14473.183       139.72686       18.239122       1
       14495.945       148.50682       17.850129       1
       14518.707       134.21076       18.394395       1
       14541.469       138.09510       17.910096       1
       14564.231       138.49245       18.399303       1
       14586.993       132.84170       17.891974       1
       14609.755       135.58770       18.189194       1
       14632.517       134.04769       17.883921       1
       14655.279       123.88984       18.132129       1
       14678.041       135.15892       17.881646       1
       14700.803       145.17211       18.495070       1
       14723.565       151.05910       18.055521       1
       14746.327       142.36261       18.477829       1
       14769.089       125.94234       17.821070       1
       14791.851       125.16356       18.367593       1
       14814.613       117.39829       17.794420       1
       14837.375       141.26039       18.362970       1
       14860.137       139.25012       17.801707       1
       14882.899       131.62820       18.320559       1
       14905.661       125.21974       17.566347       1
       14928.423       120.82733       18.138482       1
       14951.185       135.94699       17.702884       1
       14973.948       126.46148       18.217050       1
       14996.710       124.90209       17.613248       1
       15019.472       127.81082       18.195446       1
       15042.234       129.34592       17.625222       1
       15064.996       126.62973       18.174630       1
       15087.758       128.45523       17.613071       1
       15110.520       128.07144       18.206233       1
       15133.282       122.47136       17.486678       1
       15156.044       132.62745       17.793188       1
       15178.806       141.22256       17.664871       1
       15201.568       128.77657       17.737457       1
       15224.330       149.83081       17.636015       1
       15247.092       141.00451       17.763110       1
       15269.854       145.49174       17.645452       1
       15292.616       138.19402       17.699733       1
       15315.378       120.77609       17.441883       1
       15338.140       141.84297       17.805192       1
       15360.902       139.09748       17.620535       1
       15383.664       132.61329       17.806115       1
       15406.426       141.90413       17.612690       1
       15429.188       127.53524       17.739007       1
       15451.950       131.61666       17.654249       1
       15474.713       130.77326       17.785181       1
       15497.475       133.46811       17.642830       1
       15520.237       147.76813       17.914529       1
       15542.999       134.31240       17.594830       1
       15565.761       137.64182       17.753239       1
       15588.523       143.47119       17.728935       1
       15611.285       150.88794       17.977609       1
       15634.047       151.91918       17.797800       1
       15656.809       160.30866       18.193723       1
       15679.571       147.37093       17.635141       1
       15702.333       127.85902       17.576600       1
       15725.095       134.36292       17.531825       1
       15747.857       158.60657       17.924425       1
       15770.619       138.45035       17.546043       1
       15793.381       142.70032       17.783855       1
       15816.143       129.48029       17.444414       1
       15838.905       128.29814       17.884919       1
       15861.667       140.65282       17.560283       1
       15884.429       138.92796       18.005629       1
       15907.191       131.75826       17.639261       1
       15929.953       107.34403       17.757887       1
       15952.715       112.54512       17.471173       1
       15975.478       132.83969       17.970713       1
       15998.240       119.29031       17.472202       1
       16021.002       121.96412       17.814919       1
       16043.764       122.49148       17.509082       1
       16066.526       125.55112       17.971762       1
       16089.288       115.86845       17.491468       1
       16112.050       126.21439       18.037040       1
       16134.812       94.511690       15.355102       1
       16157.574       121.21578       17.835761       1
       16180.336       108.88959       17.528529       1
       16203.098       133.35197       18.167081       1
       16225.860       121.11090       17.671065       1
       16248.622       124.36878       19.202073       1
       16271.384       98.363091       15.484361       1
       16294.146       124.59387       18.216489       1
       16316.908       116.46460       17.612343       1
       16339.670       114.54492       18.125559       1
       16362.432       103.93854       17.671326       1
       16385.194       125.73529       18.200387       1
       16407.956       112.57211       17.768533       1
       16430.718       110.50493       18.214192       1
       16453.481       112.17969       17.778886       1
       16476.243       109.98779       18.328951       1
       16499.005       132.21944       18.170627       1
       16521.767       116.81663       18.970199       1
       16544.529       118.11168       18.614600       1
       16567.291       118.84382       19.368352       1
       16590.053       113.06249       19.390378       1
       16612.815       146.51621       20.783090       1
       16635.577       93.053364       20.502923       1
       16658.339       115.80000       23.153015       1
       16681.101       105.40261       22.424911       1
       16703.863       120.96602       25.479181       1
       16726.625       106.29059       24.995625       1
       16749.387       142.18900       27.362996       1
       16772.149       148.92153       28.425241       0
       16794.911       85.018373       30.384526       0
       16817.673       144.23684       32.225075       0
       16840.435       151.67119       34.902339       0
       16863.197       175.28401       36.073548       0
       16885.959       129.83441       39.025104       0
       16908.721       82.955479       39.993010       0
       16931.483       241.59385       43.521509       0
       16954.246       238.58458       44.898063       0
       16977.008       109.57752       48.183141       0
       16999.770       87.974731       49.779460       0
       17022.532       51.107329       53.069241       0
       17045.294       248.98806       55.355386       0
       17068.056       253.03444       58.908974       0
       17090.818       130.80533       61.348897       0
       17113.580       236.40697       67.070178       0
       17136.342       122.04838       69.864948       0
       17159.104       255.07227       76.405900       0
       17181.866       199.89010       80.502523       0
       17204.628       340.69787       87.456198       0
       17227.390       194.21461       91.173155       0
       17250.152      -101.07709       87.794722       0
       17272.914       376.45293       101.54099       0
