#WAVELENGTH FLUX ERROR MASK
       10192.332       5375.6912       3009.3625       0
       10215.205      -1648.1924       2555.3572       0
       10238.078      -718.28818       2259.8186       0
       10260.951      -89.467002       1918.7116       0
       10283.824       106.02680       1680.4856       0
       10306.697       1225.4798       1463.5567       0
       10329.570      -494.30150       1303.5532       0
       10352.443      -116.38142       1161.0280       0
       10375.316       1015.2003       1100.3431       0
       10398.189       561.53530       978.28638       0
       10421.062       167.33346       897.80241       0
       10443.935       1308.3036       787.39041       0
       10466.808       608.99852       682.66659       0
       10489.681       119.72624       558.79694       0
       10512.554       497.25198       487.22358       0
       10535.427      -119.86034       401.28532       0
       10558.300       173.89625       358.91140       0
       10581.172       102.94766       309.25787       0
       10604.045       216.29815       283.73384       0
       10626.918       181.57161       247.84128       0
       10649.791      -22.244830       226.89155       0
       10672.664      -20.301946       157.56696       0
       10695.537       196.06548       177.42304       0
       10718.410       209.27724       147.27981       0
       10741.283       149.26577       125.44584       0
       10764.156       58.780712       102.56967       0
       10787.029       156.96038       88.175815       0
       10809.902       159.54121       73.634273       0
       10832.775       112.40342       65.023259       0
       10855.648       60.005300       55.946847       0
       10878.521       95.856375       52.038704       0
       10901.394       104.20623       47.592283       0
       10924.267       118.95409       44.888879       0
       10947.140       126.86442       41.723494       0
       10970.013       101.01907       39.262138       0
       10992.886       173.03703       37.002374       0
       11015.759       114.26946       34.450164       1
       11038.632       121.16434       31.862982       1
       11061.505       106.61869       30.300683       1
       11084.378       116.42368       28.451367       1
       11107.251       102.26086       27.420524       1
       11130.124       129.81618       26.346117       1
       11152.997       110.07396       25.904015       1
       11175.870       125.13382       24.999723       1
       11198.743       120.22117       24.968742       1
       11221.616       123.40842       24.024593       1
       11244.489       93.356718       24.357694       1
       11267.362       129.51199       24.008893       1
       11290.235       104.31421       23.980595       1
       11313.108       131.75102       23.545996       1
       11335.981       148.07644       23.916377       1
       11358.854       119.03461       23.009574       1
       11381.727       112.53159       23.142816       1
       11404.599       106.87206       22.409854       1
       11427.472       124.11340       22.809943       1
       11450.345       116.24648       22.203487       1
       11473.218       117.08711       22.452811       1
       11496.091       122.28892       22.131700       1
       11518.964       113.89922       22.189006       1
       11541.837       102.21226       21.790509       1
       11564.710       132.80174       22.372296       1
       11587.583       120.36984       21.814927       1
       11610.456       123.02107       22.057449       1
       11633.329       135.04346       21.634207       1
       11656.202       113.68086       21.570955       1
       11679.075       119.49934       21.023086       1
       11701.948       145.23716       21.286679       1
       11724.821       129.68647       20.640905       1
       11747.694       129.45990       20.673756       1
       11770.567       87.174462       17.034232       1
       11793.440       98.072044       19.967040       1
       11816.313       140.33944       19.932324       1
       11839.186       128.43317       20.004831       1
       11862.059       139.31868       19.539010       1
       11884.932       111.61957       19.454339       1
       11907.805       119.46389       19.056181       1
       11930.678       127.45829       19.445828       1
       11953.551       101.61010       18.707588       1
       11976.424       120.47853       19.606940       1
       11999.297       124.68356       18.607853       1
       12022.170       107.35497       18.649664       1
       12045.043       112.29391       18.300826       1
       12067.916       103.08622       18.331101       1
       12090.789       131.69375       18.203957       1
       12113.662       124.64068       18.302544       1
       12136.535       131.21262       17.899682       1
       12159.408       111.01744       18.056432       1
       12182.281       122.00555       17.757969       1
       12205.154       64.905215       14.327120       1
       12228.026       116.74208       17.396399       1
       12250.899       120.02284       17.691828       1
       12273.772       111.36735       17.113754       1
       12296.645       118.63560       17.500813       1
       12319.518       118.93999       17.145328       1
       12342.391       110.02915       17.215932       1
       12365.264       107.84110       16.943642       1
       12388.137       119.26804       17.130428       1
       12411.010       111.61217       16.740954       1
       12433.883       127.38253       16.736406       1
       12456.756       139.99482       16.177705       1
       12479.629       125.97203       16.605521       1
       12502.502       105.15187       15.751127       1
       12525.375       114.94750       16.404617       1
       12548.248       130.55123       15.876760       1
       12571.121       122.00774       16.259589       1
       12593.994       109.34390       15.611240       1
       12616.867       126.94462       16.265413       1
       12639.740       108.50354       15.571693       1
       12662.613       118.59516       16.150918       1
       12685.486       111.79588       15.454450       1
       12708.359       120.89373       16.013508       1
       12731.232       130.64038       15.273650       1
       12754.105       62.215704       12.879629       1
       12776.978       112.96352       15.043605       1
       12799.851       114.14348       15.548579       1
       12822.724       126.30352       14.989988       1
       12845.597       68.005841       12.676474       1
       12868.470       133.48154       15.006783       1
       12891.343       117.45339       15.276751       1
       12914.216       121.23199       14.836672       1
       12937.089       102.77996       15.038883       1
       12959.962       109.43398       14.457700       1
       12982.835       122.99556       15.101951       1
       13005.708       127.69733       14.512720       1
       13028.580       119.65778       14.957834       1
       13051.453       119.61620       14.272114       1
       13074.326       110.42578       14.677618       1
       13097.199       104.73250       13.942193       1
       13120.072       116.33602       14.545512       1
       13142.945       117.12726       14.018374       1
       13165.818       115.94529       14.321908       1
       13188.691       121.94844       13.959663       1
       13211.564       114.67344       14.268229       1
       13234.437       113.22132       13.740571       1
       13257.310       111.59859       14.108444       1
       13280.183       106.77247       13.554496       1
       13303.056       113.22783       14.060529       1
       13325.929       121.55020       13.654205       1
       13348.802       111.02143       13.893994       1
       13371.675       102.85696       13.384564       1
       13394.548       125.68131       14.034470       1
       13417.421       120.53601       13.416287       1
       13440.294       97.265537       13.640273       1
       13463.167       114.98641       13.282357       1
       13486.040       71.986204       11.304014       1
       13508.913       106.45175       13.007682       1
       13531.786       123.31673       13.661222       1
       13554.659       119.35601       12.959462       1
       13577.532       108.88127       13.528574       1
       13600.405       122.97185       13.180370       1
       13623.278       97.126673       13.351379       1
       13646.151       112.20422       13.078544       1
       13669.024       104.49430       13.551513       1
       13691.897       116.93864       13.047133       1
       13714.770       110.94242       13.580040       1
       13737.643       103.79727       13.063824       1
       13760.516       101.28001       13.141592       1
       13783.389       115.95450       13.113983       1
       13806.262       105.31020       13.265482       1
       13829.135       94.507562       12.806055       1
       13852.007       101.65829       13.321033       1
       13874.880       116.71614       13.091843       1
       13897.753       100.98631       13.378750       1
       13920.626       107.20769       12.955015       1
       13943.499       108.06207       13.381259       1
       13966.372       113.80720       12.865310       1
       13989.245       125.33682       13.388541       1
       14012.118       110.05423       12.694361       1
       14034.991       43.505771       7.6006197       1
       14057.864       102.13584       12.548467       1
       14080.737       117.29827       13.053776       1
       14103.610       106.61315       12.607982       1
       14126.483       101.59900       12.899007       1
       14149.356       107.37842       12.491941       1
       14172.229       111.18390       12.984802       1
       14195.102       118.23550       12.542172       1
       14217.975       64.416030       10.534894       1
       14240.848       113.68291       12.242269       1
       14263.721       119.73439       12.893150       1
       14286.594       114.71986       12.305192       1
       14309.467       113.64601       12.675155       1
       14332.340       108.14250       12.204497       1
       14355.213       100.31409       12.467336       1
       14378.086       97.750827       12.032234       1
       14400.959       114.86070       12.635756       1
       14423.832       100.65774       12.003537       1
       14446.705       112.03300       12.592386       1
       14469.578       75.770098       10.104897       1
       14492.451       114.86445       12.567736       1
       14515.324       103.28739       12.072212       1
       14538.197       111.74185       12.539724       1
       14561.070       99.894040       12.079633       1
       14583.943       123.82940       12.735920       1
       14606.816       111.38123       12.119197       1
       14629.689       114.91002       12.671838       1
       14652.562       98.757184       12.011226       1
       14675.434       123.73963       12.767258       1
       14698.307       99.984201       12.062213       1
       14721.180       116.87694       12.695426       1
       14744.053       119.24568       12.302861       1
       14766.926       100.96517       12.526738       1
       14789.799       120.24259       12.294892       1
       14812.672       120.56435       12.741253       1
       14835.545       101.71962       12.057692       1
       14858.418       105.00467       12.493365       1
       14881.291       100.90009       11.965812       1
       14904.164       120.80539       12.503317       1
       14927.037       116.83234       12.008741       1
       14949.910       107.41835       12.269108       1
       14972.783       125.13011       12.004013       1
       14995.656       110.91516       12.315257       1
       15018.529       108.07138       11.790992       1
       15041.402       119.55642       12.288770       1
       15064.275       119.41687       11.830687       1
       15087.148       99.004781       12.466786       1
       15110.021       109.70977       12.263677       1
       15132.894       106.89812       12.509175       1
       15155.767       122.70364       12.383187       1
       15178.640       97.200235       12.332011       1
       15201.513       102.00177       12.126199       1
       15224.386       111.34604       12.440892       1
       15247.259       86.859863       11.998645       1
       15270.132       70.641118       10.016226       1
       15293.005       111.26584       12.222726       1
       15315.878       99.100471       13.048194       1
       15338.751       110.80945       12.314436       1
       15361.624       97.418945       12.222736       1
       15384.497       104.63526       12.216525       1
       15407.370       107.59759       12.268499       1
       15430.243       104.76835       12.231739       1
       15453.116       125.35086       12.721491       1
       15475.988       121.27137       12.460975       1
       15498.861       108.37178       12.387974       1
       15521.734       123.19566       12.426606       1
       15544.607       112.94172       12.547165       1
       15567.480       119.79276       12.444260       1
       15590.353       119.95211       12.593027       1
       15613.226       93.278891       12.168451       1
       15636.099       92.300414       12.374414       1
       15658.972       88.049199       12.077259       1
       15681.845       111.67335       12.458902       1
       15704.718       21.195794       6.1910213       1
       15727.591       104.70109       12.410743       1
       15750.464       102.47344       12.020631       1
       15773.337       110.42997       12.399325       1
       15796.210       109.34004       12.160876       1
       15819.083       97.249144       12.129143       1
       15841.956       83.973330       11.991242       1
       15864.829       99.946427       12.329166       1
       15887.702       101.20914       12.163989       1
       15910.575       92.425601       12.237206       1
       15933.448       93.340480       12.143037       1
       15956.321       90.237807       12.236642       1
       15979.194       94.342861       12.114234       1
       16002.067       90.203474       12.219980       1
       16024.940       97.526898       12.154930       1
       16047.813       61.430429       9.9415818       1
       16070.686       99.596888       12.206798       1
       16093.559       94.590866       12.341687       1
       16116.432       88.933350       12.109780       1
       16139.305       88.681452       12.316856       1
       16162.178       95.306105       12.285818       1
       16185.051       84.756081       12.434411       1
       16207.924       52.306617       9.7269745       1
       16230.797       95.127173       12.673539       1
       16253.670       52.798138       9.8278888       1
       16276.543       91.068058       12.596076       1
       16299.415       117.11471       12.609543       1
       16322.288       91.035388       12.651449       1
       16345.161       85.728231       12.504097       1
       16368.034       81.526076       12.582705       1
       16390.907       19.107112       6.5189571       1
       16413.780       88.191845       12.682088       1
       16436.653       95.928701       12.607153       1
       16459.526       86.166335       12.868347       1
       16482.399       84.579270       12.769598       1
       16505.272       89.428584       13.268358       1
       16528.145       103.85904       13.576827       1
       16551.018       73.004410       13.924872       1
       16573.891       105.68000       14.616965       1
       16596.764       79.737025       15.412298       1
       16619.637       86.547608       16.141463       1
       16642.510       83.372986       17.695823       1
       16665.383       51.387381       15.133647       1
       16688.256       87.359807       23.447888       1
       16711.129       104.13997       23.748077       1
       16734.002       67.470162       22.672040       1
       16756.875       105.19536       30.453947       0
       16779.748       127.82736       35.419961       0
       16802.621       103.93635       39.203814       0
       16825.494       103.66458       44.812549       0
       16848.367       175.42966       50.531401       0
       16871.240       122.25991       56.681205       0
       16894.113       139.01222       61.999205       0
       16916.986       116.27002       70.092311       0
       16939.859       81.028277       76.799210       0
       16962.732       191.43394       88.405379       0
       16985.605       103.80196       95.677540       0
       17008.478       32.757262       107.23291       0
       17031.351       105.38305       117.94259       0
       17054.224       84.770085       132.19614       0
       17077.097       117.02756       145.95808       0
       17099.970       141.76919       166.32546       0
       17122.842       214.25650       186.49096       0
       17145.715       190.99437       218.76245       0
       17168.588       214.32626       248.84912       0
       17191.461       153.15558       289.55196       0
       17214.334       32.701577       318.86647       0
       17237.207      -153.65241       371.29888       0
       17260.080      -191.21878       398.05252       0
       17282.953      -9.2771626       452.36221       0
       17305.826      -183.05502       485.64376       0
