#WAVELENGTH FLUX ERROR MASK
       10195.874      -4597.8002       3144.7834       0
       10218.872      -795.56654       2716.9428       0
       10241.871      -4646.6175       2368.3709       0
       10264.869      -117.18754       2016.5255       0
       10287.868       955.69954       1801.9495       0
       10310.866      -610.72635       1513.6325       0
       10333.865      -978.68739       1382.1903       0
       10356.863      -1430.5231       1217.3813       0
       10379.862       138.96496       1162.3453       0
       10402.860       150.20039       1033.6619       0
       10425.859      -170.49542       958.28984       0
       10448.857       695.22172       810.38669       0
       10471.856       159.41551       707.56352       0
       10494.854      -280.42634       572.43637       0
       10517.853       667.93510       509.79213       0
       10540.851       574.93107       423.99349       0
       10563.850       389.10741       381.81610       0
       10586.848       12.388981       257.14473       0
       10609.847       258.29668       302.32889       0
       10632.845       190.45248       259.01864       0
       10655.844      -61.468636       242.59716       0
       10678.842       311.17683       206.68902       0
       10701.841       279.29597       187.52830       0
       10724.839       62.055127       148.77969       0
       10747.838       34.794385       129.43484       0
       10770.836       94.982515       103.49146       0
       10793.835       106.66417       91.137311       0
       10816.833       161.10547       75.355925       0
       10839.832       99.200555       67.519963       0
       10862.830       144.27041       58.842188       0
       10885.829       144.71648       56.344374       0
       10908.827       111.16449       49.559979       0
       10931.826       90.088677       47.892423       0
       10954.824       169.44710       43.744242       0
       10977.823       159.39782       42.548823       0
       11000.821       159.44466       38.156555       1
       11023.820       107.61687       36.659950       1
       11046.818       134.53678       33.250528       1
       11069.817       152.16407       32.911806       1
       11092.815       126.39625       29.714415       1
       11115.814       176.23530       30.410627       1
       11138.812       120.92880       27.788727       1
       11161.811       137.44958       28.443252       1
       11184.809       139.52155       26.752278       1
       11207.808       125.16554       27.459439       1
       11230.806       116.58886       25.869707       1
       11253.805       115.79225       26.517459       1
       11276.803       109.50285       25.260677       1
       11299.802       128.48349       26.377619       1
       11322.800       144.41989       25.051222       1
       11345.799       147.60814       26.073018       1
       11368.797       124.53743       24.278659       1
       11391.796       124.79976       25.310990       1
       11414.794       116.08027       23.706568       1
       11437.793       137.78831       24.914506       1
       11460.791       101.49790       23.295154       1
       11483.790       112.98096       24.187080       1
       11506.788       128.66853       23.682125       1
       11529.787       109.48127       24.302206       1
       11552.785       116.61313       23.266437       1
       11575.784       91.042357       23.840142       1
       11598.782       114.79193       23.112251       1
       11621.781       133.39882       24.024777       1
       11644.779       122.25789       22.651528       1
       11667.777       127.15315       23.619775       1
       11690.776       147.89100       22.498857       1
       11713.774       153.52757       23.105387       1
       11736.773       134.47362       21.871245       1
       11759.771       132.74057       8297714.3       1
       11782.770       124.14257       21.330332       1
       11805.768       133.05363       21.977617       1
       11828.767       149.46725       21.255875       1
       11851.765       177.98641       22.109382       1
       11874.764       134.24170       20.746748       1
       11897.762       123.24683       21.278291       1
       11920.761       134.77074       20.424284       1
       11943.759       114.28334       20.856478       1
       11966.758       140.66531       20.353305       1
       11989.756       124.57737       20.662098       1
       12012.755       153.00273       20.146188       1
       12035.753       165.93698       20.671186       1
       12058.752       150.00603       19.908734       1
       12081.750       146.62707       20.301385       1
       12104.749       102.19496       19.247748       1
       12127.747       110.66938       19.809745       1
       12150.746       117.39314       19.039282       1
       12173.744       141.69682       19.819397       1
       12196.743       136.74999       19.074705       1
       12219.741       117.10822       19.374451       1
       12242.740       128.64370       18.784725       1
       12265.738       100.00854       18.996022       1
       12288.737       124.14133       18.494376       1
       12311.735       132.11382       19.064788       1
       12334.734       113.24157       18.194692       1
       12357.732       139.42225       19.030153       1
       12380.731       97.897313       17.929985       1
       12403.729       113.37700       18.586636       1
       12426.728       125.40459       18.091570       1
       12449.726       119.93051       18.474852       1
       12472.725       111.75624       17.709352       1
       12495.723       137.80542       18.467883       1
       12518.722       150.26920       18.056346       1
       12541.720       139.30080       18.488065       1
       12564.719       125.88367       17.779098       1
       12587.717       134.00890       18.282977       1
       12610.716       134.91000       17.660389       1
       12633.714       123.44200       18.106631       1
       12656.713       127.65572       17.509659       1
       12679.711       117.48469       17.899818       1
       12702.710       139.33446       17.497709       1
       12725.708       128.69068       17.753335       1
       12748.707       119.75840       17.000376       1
       12771.705       118.84248       17.502890       1
       12794.704       114.52943       16.789257       1
       12817.702       116.86158       17.208500       1
       12840.701       111.14506       16.595713       1
       12863.699       117.51271       17.208241       1
       12886.698       121.71937       16.559077       1
       12909.696       138.43784       16.869516       1
       12932.695       124.33782       16.419498       1
       12955.693       122.94314       16.733399       1
       12978.692       108.95912       16.203219       1
       13001.690       115.55939       16.565868       1
       13024.689       104.80540       15.943135       1
       13047.687       117.11423       16.522690       1
       13070.686       130.56701       15.981061       1
       13093.684       121.74839       16.403030       1
       13116.683       118.58218       15.739521       1
       13139.681       123.24772       16.219844       1
       13162.680       126.35582       15.851865       1
       13185.678       135.62407       16.137946       1
       13208.677       127.56924       15.614990       1
       13231.675       124.66580       15.844609       1
       13254.674       135.52982       15.721916       1
       13277.672       127.09707       15.356842       1
       13300.671       124.23266       15.429942       1
       13323.669       122.36836       18.416154       1
       13346.668       116.61697       15.400233       1
       13369.666       136.13419       18.580634       1
       13392.665       126.22341       15.275712       1
       13415.663       135.24483       15.671082       1
       13438.662       113.83337       15.014622       1
       13461.660       123.02704       15.363968       1
       13484.659       118.52105       15.044962       1
       13507.657       138.98936       15.377163       1
       13530.656       122.25176       14.919747       1
       13553.654       119.90169       15.179439       1
       13576.653       127.09291       14.955308       1
       13599.651       131.33154       15.309480       1
       13622.650       121.33593       14.716048       1
       13645.648       130.01221       15.244414       1
       13668.647       125.10369       14.909522       1
       13691.645       125.88185       15.081669       1
       13714.644       127.76941       15.002198       1
       13737.642       110.27776       15.039628       1
       13760.641       129.40069       15.046095       1
       13783.639       132.33496       15.309919       1
       13806.638       119.69713       14.996496       1
       13829.636       112.14453       15.013508       1
       13852.635       116.47857       14.894146       1
       13875.633       103.44074       14.972854       1
       13898.632       98.138741       14.629088       1
       13921.630       104.52668       14.927883       1
       13944.629       99.051361       14.549806       1
       13967.627       129.03792       14.954734       1
       13990.626       120.58542       14.618239       1
       14013.624       121.72950       14.806941       1
       14036.623       127.20921       14.534006       1
       14059.621       133.96296       14.864283       1
       14082.620       70.780200       11.840152       1
       14105.618       115.83633       14.536722       1
       14128.617       109.96616       5251465.9       1
       14151.615       120.52893       14.559933       1
       14174.614       114.91156       14.210011       1
       14197.612       115.29899       14.413742       1
       14220.611       115.24155       14.205535       1
       14243.609       116.61396       14.436834       1
       14266.608       117.58251       14.112104       1
       14289.606       119.72673       14.196065       1
       14312.605       116.70185       13.961229       1
       14335.603       118.78697       14.083232       1
       14358.602       119.39412       13.899057       1
       14381.600       115.43852       13.904804       1
       14404.599       117.07570       13.868909       1
       14427.597       129.58483       14.247623       1
       14450.596       124.13891       13.837833       1
       14473.594       127.19678       14.302925       1
       14496.593       130.99424       13.891198       1
       14519.591       116.69886       14.131669       1
       14542.590       131.83971       6211466.7       1
       14565.588       132.02113       14.102525       1
       14588.587       133.84211       13.886559       1
       14611.585       128.99008       14.261685       1
       14634.584       134.22514       13.969714       1
       14657.582       119.62420       14.190049       1
       14680.581       115.63647       13.704587       1
       14703.579       123.07960       14.253303       1
       14726.578       102.05731       13.503495       1
       14749.576       116.51934       14.226958       1
       14772.575       105.22573       13.724487       1
       14795.573       106.71684       14.112962       1
       14818.572       128.74718       13.851373       1
       14841.570       115.37680       14.220056       1
       14864.569       126.57496       13.800428       1
       14887.567       126.73790       14.254258       1
       14910.566       110.75046       13.618267       1
       14933.564       127.65413       14.095760       1
       14956.563       117.19503       13.601513       1
       14979.561       103.18046       13.776849       1
       15002.560       140.87416       13.715997       1
       15025.558       128.34119       13.984557       1
       15048.557       114.33498       13.312772       1
       15071.555       110.07938       13.930794       1
       15094.554       123.06422       13.445523       1
       15117.552       105.03081       13.831535       1
       15140.551       103.92974       13.426451       1
       15163.549       45.138475       9.8812472       1
       15186.548       112.83923       13.496931       1
       15209.546       107.45535       13.708788       1
       15232.545       104.05193       13.409013       1
       15255.543       108.74286       13.720853       1
       15278.542       118.95520       13.565715       1
       15301.540       119.39714       13.969928       1
       15324.539       114.97935       13.531133       1
       15347.537       108.12337       13.802873       1
       15370.536       118.02462       13.715688       1
       15393.534       116.17080       14.004037       1
       15416.533       127.59482       13.837064       1
       15439.531       116.86241       14.075549       1
       15462.530       140.01680       13.949376       1
       15485.528       124.87414       14.120361       1
       15508.527       137.92819       13.971054       1
       15531.525       142.98071       14.424258       1
       15554.524       110.88668       13.855389       1
       15577.522       106.58989       14.207865       1
       15600.521       103.67897       13.732102       1
       15623.519       115.76757       14.268571       1
       15646.518       104.43698       13.803025       1
       15669.516       107.99889       14.171130       1
       15692.515       106.48136       13.859999       1
       15715.513       109.44293       14.273336       1
       15738.512       112.93516       13.735644       1
       15761.510       113.19286       14.340644       1
       15784.509       109.82158       13.708886       1
       15807.507       123.04002       14.444301       1
       15830.506       116.29406       13.699654       1
       15853.504       106.06803       14.223024       1
       15876.503       97.792408       13.732671       1
       15899.501       105.98712       14.350079       1
       15922.500       93.583888       13.726153       1
       15945.498       104.05041       14.494589       1
       15968.497       109.08969       13.974108       1
       15991.495       106.21152       14.504327       1
       16014.494       103.85152       13.927504       1
       16037.492       108.92934       14.458214       1
       16060.491       101.67116       13.971577       1
       16083.489       90.785481       14.463058       1
       16106.488       102.11306       13.966483       1
       16129.486       97.743354       14.595940       1
       16152.485       98.403154       14.120794       1
       16175.483       90.772174       14.757333       1
       16198.482       108.58192       14.342967       1
       16221.480       88.443831       14.774425       1
       16244.479       102.96325       14.359446       1
       16267.477       92.713196       14.866284       1
       16290.476       89.865781       14.323189       1
       16313.474       96.299266       14.978273       1
       16336.473       99.933330       14.599356       1
       16359.471       106.03534       15.227664       1
       16382.470       98.497530       14.595602       1
       16405.468       104.68240       15.281727       1
       16428.467       104.43011       14.766885       1
       16451.465       83.559190       15.182266       1
       16474.464       97.536614       14.820818       1
       16497.462       103.74104       15.737830       1
       16520.461       86.986672       15.283696       1
       16543.459       78.415269       16.408730       1
       16566.458       106.70296       16.706025       1
       16589.456       99.966605       18.163212       1
       16612.455       115.06358       18.918218       1
       16635.453       89.935123       20.960981       1
       16658.452       113.37586       21.885663       1
       16681.450       88.282320       24.850550       1
       16704.449       101.72549       26.856592       1
       16727.447       96.556113       31.475806       1
       16750.446       91.364606       33.365329       0
       16773.444       104.65994       40.858073       0
       16796.443       96.810740       44.448645       0
       16819.441       57.971839       52.041676       0
       16842.440       76.397111       56.469754       0
       16865.438      -142.17794       54.100088       0
       16888.437       40.362210       70.274219       0
       16911.435       85.371592       82.342064       0
       16934.434       236.37098       90.274057       0
       16957.432       174.05621       103.06644       0
       16980.431       109.01810       110.87735       0
       17003.429       190.10840       128.66672       0
       17026.428       197.79420       138.16859       0
       17049.426      -70.030653       153.99823       0
       17072.425       201.66126       171.72174       0
       17095.423       136.11138       197.13281       0
       17118.422       33.461794       216.46056       0
       17141.420       363.27658       258.16387       0
       17164.419       434.80269       290.01828       0
       17187.417       464.36091       344.64962       0
       17210.416       131.55052       377.68817       0
       17233.414       379.69150       439.12756       0
       17256.413       847.52697       484.21669       0
       17279.411      -26.117774       544.20921       0
       17302.410       877.48433       592.28221       0
       17325.408      -3.5668001       658.51131       0
       17348.407       351.35277       719.88274       0
