#WAVELENGTH FLUX ERROR MASK
       10161.827       532.39052       3210.7325       0
       10184.218       1437.8184       3117.7386       0
       10206.610       1146.4222       2732.6561       0
       10229.001      -2067.8759       2439.7468       0
       10251.392       1576.6611       2072.7968       0
       10273.783       2766.6730       1860.6552       0
       10296.174       1479.2154       1555.9298       0
       10318.565       571.33237       1415.6177       0
       10340.956      -194.80581       1224.3471       0
       10363.347      -207.23067       1161.2273       0
       10385.738       206.87708       1030.4612       0
       10408.129       332.90295       972.59572       0
       10430.520      -660.26996       826.93962       0
       10452.911       35.615425       760.60010       0
       10475.302       1514.5518       641.70167       0
       10497.693      -273.22608       542.30896       0
       10520.085       497.03982       460.14164       0
       10542.476       328.63911       406.90969       0
       10564.867       128.65367       338.44820       0
       10587.258       204.85812       313.85416       0
       10609.649       338.14697       273.40531       0
       10632.040       103.79308       252.93867       0
       10654.431       240.80075       221.52699       0
       10676.822       117.05307       202.04594       0
       10699.213       146.14838       171.61248       0
       10721.604      -96.530515       127.82689       0
       10743.995       28.256191       120.46666       0
       10766.386       69.696830       106.04168       0
       10788.777       117.00066       85.526507       0
       10811.168       83.598957       76.628935       0
       10833.559       109.43344       64.343954       0
       10855.951       108.28287       60.421783       0
       10878.342       101.45582       52.240302       0
       10900.733       96.254694       50.402908       0
       10923.124       94.901617       44.853942       0
       10945.515       86.775351       44.130238       0
       10967.906       112.57226       39.692467       0
       10990.297       78.842643       38.690290       0
       11012.688       130.02443       34.865539       1
       11035.079       101.94535       33.776433       1
       11057.470       78.968139       24.827943       1
       11079.861       88.542486       30.096066       1
       11102.252       120.81259       27.994572       1
       11124.643       111.95096       28.080762       1
       11147.034       70.197481       25.720524       1
       11169.426       95.472757       26.668801       1
       11191.817       102.78213       25.088870       1
       11214.208       92.327650       25.766317       1
       11236.599       91.601080       24.321573       1
       11258.990       89.212304       25.171480       1
       11281.381       94.506685       23.992134       1
       11303.772       96.391916       24.986736       1
       11326.163       114.25255       23.703400       1
       11348.554       103.67428       24.544706       1
       11370.945       97.039314       23.625328       1
       11393.336       90.836248       23.965395       1
       11415.727       109.29336       22.861646       1
       11438.118       92.909614       23.614434       1
       11460.509       92.732964       22.427832       1
       11482.901       107.89421       23.516237       1
       11505.292       57.339264       18.386106       1
       11527.683       109.74471       23.364450       1
       11550.074       114.00681       22.282713       1
       11572.465       113.62693       23.208133       1
       11594.856       89.675776       21.769769       1
       11617.247       93.331947       22.815938       1
       11639.638       119.57524       21.685688       1
       11662.029       103.30324       22.316759       1
       11684.420       65.617942       17.134431       1
       11706.811       98.670001       21.958687       1
       11729.202       103.61089       20.697105       1
       11751.593       126.95163       21.276492       1
       11773.984       101.26692       20.253723       1
       11796.375       101.90349       20.562432       1
       11818.767       106.34163       19.876305       1
       11841.158       96.174607       20.495337       1
       11863.549       93.526036       19.473059       1
       11885.940       76.968992       19.850595       1
       11908.331       117.00994       19.320777       1
       11930.722       90.679699       19.467716       1
       11953.113       103.52549       18.817196       1
       11975.504       109.50860       19.450489       1
       11997.895       96.427466       18.620997       1
       12020.286       97.688299       18.774224       1
       12042.677       96.616709       18.144192       1
       12065.068       102.37601       18.803560       1
       12087.459       118.67650       18.426344       1
       12109.850       129.05882       19.005639       1
       12132.242       99.306379       17.904299       1
       12154.633       106.90598       18.552268       1
       12177.024       107.72853       17.821102       1
       12199.415       110.99195       18.186323       1
       12221.806       95.712613       17.593057       1
       12244.197       138.29136       18.136403       1
       12266.588       91.983497       17.300896       1
       12288.979       101.40172       17.753164       1
       12311.370       132.14853       17.545254       1
       12333.761       132.01916       18.091804       1
       12356.152       123.03804       17.145869       1
       12378.543       152.23016       18.148167       1
       12400.934       120.77609       16.708251       1
       12423.325       152.22130       18.052815       1
       12445.717       126.09125       16.785841       1
       12468.108       143.96219       17.699894       1
       12490.499       129.72724       17.021246       1
       12512.890       141.22879       17.444193       1
       12535.281       127.61858       16.798032       1
       12557.672       130.08607       17.381954       1
       12580.063       118.28753       16.557223       1
       12602.454       92.833167       17.005418       1
       12624.845       63.940804       11.993854       1
       12647.236       105.09244       16.944497       1
       12669.627       62.728464       11.941943       1
       12692.018       125.24531       17.044445       1
       12714.409       69.368990       11.765418       1
       12736.800       101.12153       16.546767       1
       12759.192       56.618907       11.505219       1
       12781.583       118.90515       16.600786       1
       12803.974       102.51831       15.452154       1
       12826.365       117.19271       16.415478       1
       12848.756       62.790052       11.405396       1
       12871.147       98.088875       16.049773       1
       12893.538       113.77559       15.634149       1
       12915.929       120.06336       16.170694       1
       12938.320       109.83467       15.522877       1
       12960.711       112.93783       15.987526       1
       12983.102       101.62295       15.208557       1
       13005.493       115.05632       15.774469       1
       13027.884       115.84520       15.007948       1
       13050.275       148.51959       15.980028       1
       13072.666       103.96683       14.500411       1
       13095.058       118.34109       15.206889       1
       13117.449       110.26182       14.658132       1
       13139.840       111.76079       15.109594       1
       13162.231       113.93057       14.438101       1
       13184.622       115.41654       15.008188       1
       13207.013       63.750436       11.561693       1
       13229.404       106.84573       14.770705       1
       13251.795       121.59201       14.392013       1
       13274.186       112.46658       14.731739       1
       13296.577       107.08254       14.271950       1
       13318.968       99.933646       14.435311       1
       13341.359       107.09570       14.185284       1
       13363.750       109.47642       14.556681       1
       13386.141       101.05837       14.108220       1
       13408.533       115.52843       14.450059       1
       13430.924       117.30287       14.167908       1
       13453.315       107.22796       14.289430       1
       13475.706       92.439978       13.714744       1
       13498.097       129.53275       14.345952       1
       13520.488       91.339689       13.687274       1
       13542.879       102.78592       14.054027       1
       13565.270       98.826467       13.768024       1
       13587.661       97.062743       14.011700       1
       13610.052       126.66530       13.982206       1
       13632.443       111.55716       14.119340       1
       13654.834       107.67253       13.759679       1
       13677.225       113.70394       14.182244       1
       13699.616       112.83691       13.761259       1
       13722.008       95.717860       14.003534       1
       13744.399       112.06076       13.842140       1
       13766.790       97.992211       13.984420       1
       13789.181       111.74449       13.836181       1
       13811.572       109.06161       14.142190       1
       13833.963       110.51297       13.772776       1
       13856.354       106.82507       14.038892       1
       13878.745       112.62380       13.827259       1
       13901.136       95.297478       5557507.6       1
       13923.527       95.780292       13.508465       1
       13945.918       109.27235       13.919745       1
       13968.309       104.70255       13.472354       1
       13990.700       122.37912       14.013231       1
       14013.091       122.41007       13.400193       1
       14035.482       108.78172       13.614054       1
       14057.874       112.92573       13.363260       1
       14080.265       106.32287       13.551693       1
       14102.656       107.49577       13.270750       1
       14125.047       113.44616       13.588032       1
       14147.438       97.937446       13.001660       1
       14169.829       126.22006       13.653282       1
       14192.220       110.91037       13.145577       1
       14214.611       104.63076       13.709594       1
       14237.002       106.82540       13.080500       1
       14259.393       119.58429       13.516075       1
       14281.784       110.43691       13.059965       1
       14304.175       125.43027       13.574043       1
       14326.566       110.98380       12.981335       1
       14348.957       118.47378       13.498171       1
       14371.349       135.70623       13.234428       1
       14393.740       116.23234       13.458376       1
       14416.131       105.36641       12.790396       1
       14438.522       117.11109       13.390060       1
       14460.913       118.85666       12.984659       1
       14483.304       106.51386       13.243820       1
       14505.695       115.96421       12.968895       1
       14528.086       107.15553       13.289249       1
       14550.477       102.15253       12.765932       1
       14572.868       120.80550       13.473237       1
       14595.259       117.69170       13.009573       1
       14617.650       119.31162       13.366643       1
       14640.041       115.46932       12.970310       1
       14662.432       97.658622       13.100127       1
       14684.824       96.170406       12.607730       1
       14707.215       120.13852       13.370705       1
       14729.606       114.08124       12.911795       1
       14751.997       128.10935       13.529673       1
       14774.388       93.230884       12.748810       1
       14796.779       108.69904       13.282971       1
       14819.170       118.09828       12.819568       1
       14841.561       98.785554       13.101919       1
       14863.952       99.808219       12.565039       1
       14886.343       103.89772       13.159882       1
       14908.734       126.79706       12.870881       1
       14931.125       114.65480       13.054666       1
       14953.516       118.70545       12.660075       1
       14975.907       108.21589       13.006460       1
       14998.298       93.790854       12.439271       1
       15020.690       117.29613       13.053699       1
       15043.081       112.87336       12.585939       1
       15065.472       133.28312       13.212915       1
       15087.863       106.76721       12.454566       1
       15110.254       50.296371       8.6071837       1
       15132.645       102.33802       12.396998       1
       15155.036       138.67559       13.209854       1
       15177.427       121.94783       12.664443       1
       15199.818       99.036273       12.738251       1
       15222.209       115.22213       12.405883       1
       15244.600       109.18462       12.892286       1
       15266.991       111.44892       12.406889       1
       15289.382       110.20941       12.866020       1
       15311.773       120.48184       12.562458       1
       15334.165       112.30154       12.867715       1
       15356.556       113.64569       12.483090       1
       15378.947       129.81925       13.123592       1
       15401.338       117.20363       12.614122       1
       15423.729       105.26755       13.065134       1
       15446.120       103.34992       12.470450       1
       15468.511       112.36308       13.205889       1
       15490.902       104.46363       12.520645       1
       15513.293       112.25821       13.210068       1
       15535.684       111.33573       12.632813       1
       15558.075       106.45684       13.085558       1
       15580.466       101.59947       12.488804       1
       15602.857       98.337532       13.027963       1
       15625.248       106.97956       12.540183       1
       15647.640       115.20650       13.041335       1
       15670.031       101.05145       12.440572       1
       15692.422       115.93580       13.094060       1
       15714.813       100.76295       12.385730       1
       15737.204       109.54103       12.978908       1
       15759.595       107.93669       12.400937       1
       15781.986       107.60732       12.966062       1
       15804.377       118.71969       12.574778       1
       15826.768       131.07264       13.169330       1
       15849.159       102.19007       12.393050       1
       15871.550       95.830719       12.795803       1
       15893.941       108.37101       12.462764       1
       15916.332       99.910284       12.962188       1
       15938.723       109.18799       12.254769       1
       15961.115       100.77944       12.948166       1
       15983.506       106.93351       12.390275       1
       16005.897       103.18562       12.916764       1
       16028.288       117.12518       12.587253       1
       16050.679       109.17862       13.022814       1
       16073.070       90.566393       12.349977       1
       16095.461       107.72831       13.145272       1
       16117.852       96.106237       12.479382       1
       16140.243       100.90515       13.046612       1
       16162.634       105.83893       12.488284       1
       16185.025       99.586007       13.187697       1
       16207.416       101.50021       12.646098       1
       16229.807       107.90117       13.396277       1
       16252.198       100.71835       12.725984       1
       16274.589       97.315791       13.270878       1
       16296.981       119.55645       13.021436       1
       16319.372       104.85726       13.408674       1
       16341.763       101.32299       12.844577       1
       16364.154       131.02874       13.719905       1
       16386.545       98.961615       12.885788       1
       16408.936       67.722833       11.345531       1
       16431.327       105.81454       12.913690       1
       16453.718       99.555226       13.570786       1
       16476.109       110.04198       13.306049       1
       16498.500       118.00500       14.168813       1
       16520.891       100.81255       13.748208       1
       16543.282       122.53169       15.044302       1
       16565.673       122.05634       15.011806       1
       16588.064       130.25820       16.816916       1
       16610.456       118.02004       16.620056       1
       16632.847       152.72570       19.110447       1
       16655.238       127.20684       19.723500       1
       16677.629       126.50109       22.561663       1
       16700.020       140.37066       24.236023       1
       16722.411       123.21650       28.078129       1
       16744.802       154.09825       30.667884       1
       16767.193       79.663762       24.195821       0
       16789.584       84.249849       38.853186       0
       16811.975       71.731533       45.338848       0
       16834.366       107.30938       49.264917       0
       16856.757       126.03873       57.300914       0
       16879.148       96.024382       61.336187       0
       16901.539       214.33472       71.117517       0
       16923.931       237.52585       77.469856       0
       16946.322       164.82589       87.472504       0
       16968.713       93.853185       94.204328       0
       16991.104       193.45354       108.51003       0
       17013.495       193.84619       115.83905       0
       17035.886      -17.498162       130.24232       0
       17058.277       257.95843       142.85515       0
       17080.668       133.61492       164.71188       0
       17103.059       179.45762       180.69490       0
       17125.450       367.04895       214.55282       0
