#WAVELENGTH FLUX ERROR MASK
       10194.210       1638.7595       2710.5847       0
       10216.561      -1619.8110       2433.4446       0
       10238.912       406.32230       2087.3703       0
       10261.263       598.96527       1845.9209       0
       10283.615      -263.96867       1539.6594       0
       10305.966       342.93588       1393.0397       0
       10328.317       521.69882       1207.5128       0
       10350.668       1176.8045       1138.8857       0
       10373.019       901.69299       1017.2286       0
       10395.370       540.29044       947.46492       0
       10417.722       760.03855       847.46354       0
       10440.073       89.812110       755.64449       0
       10462.424       6.8589213       640.71973       0
       10484.775       507.95057       562.08202       0
       10507.126       229.79443       464.33457       0
       10529.477       394.36633       403.42198       0
       10551.829       391.45922       344.38588       0
       10574.180       423.58121       311.69744       0
       10596.531       262.85832       270.53644       0
       10618.882       466.89082       251.96589       0
       10641.233       366.67291       221.13913       0
       10663.585       226.15306       202.34620       0
       10685.936       293.11687       174.41514       0
       10708.287       114.56827       151.30538       0
       10730.638       137.33351       125.74418       0
       10752.989       187.13112       108.56296       0
       10775.340       150.67613       88.846754       0
       10797.692       101.62262       76.188040       0
       10820.043       176.43974       65.608225       0
       10842.394       108.98111       58.096116       0
       10864.745       127.22183       51.565396       0
       10887.096       135.44405       48.133686       0
       10909.447       115.48155       43.737152       0
       10931.799       128.27239       41.827453       0
       10954.150       124.04757       38.467752       0
       10976.501       136.23645       36.922026       0
       10998.852       108.45578       33.478260       0
       11021.203       259.18870       33.734600       1
       11043.554       143.18197       29.903655       1
       11065.906       167.12608       29.108651       1
       11088.257       128.37200       26.709457       1
       11110.608       115.95531       26.087206       1
       11132.959       102.07074       24.473402       1
       11155.310       64.482166       24.021239       1
       11177.661       89.000238       23.232596       1
       11200.013       130.69748       23.906783       1
       11222.364       133.48758       23.118203       1
       11244.715       97.998952       23.067840       1
       11267.066       127.19002       22.755102       1
       11289.417       110.50926       22.803260       1
       11311.769       123.21010       22.283966       1
       11334.120       137.02714       22.695006       1
       11356.471       116.77643       21.548277       1
       11378.822       132.12146       22.142041       1
       11401.173       110.88940       21.002768       1
       11423.524       118.31536       21.721990       1
       11445.876       106.92933       20.804655       1
       11468.227       102.36292       21.335602       1
       11490.578       134.62039       20.943844       1
       11512.929       124.42761       21.279110       1
       11535.280       118.62401       20.735083       1
       11557.631       119.48952       21.099660       1
       11579.983       148.63886       20.987754       1
       11602.334       116.51581       20.848971       1
       11624.685       128.97496       20.369712       1
       11647.036       100.37616       20.436411       1
       11669.387       96.637012       19.488903       1
       11691.738       132.72498       20.379698       1
       11714.090       120.57293       19.504178       1
       11736.441       100.34170       19.510215       1
       11758.792       109.27819       18.975220       1
       11781.143       113.91346       19.314167       1
       11803.494       124.01598       18.695693       1
       11825.845       124.85560       19.040293       1
       11848.197       115.09945       18.310044       1
       11870.548       109.49491       18.668282       1
       11892.899       134.61706       18.277395       1
       11915.250       111.59021       18.376751       1
       11937.601       125.70577       17.942603       1
       11959.952       87.872286       17.869872       1
       11982.304       110.85753       17.612553       1
       12004.655       98.397978       17.847536       1
       12027.006       139.21978       17.715766       1
       12049.357       134.74339       17.945875       1
       12071.708       125.27675       17.335744       1
       12094.060       115.50780       17.485502       1
       12116.411       117.89778       17.043005       1
       12138.762       132.69703       17.550391       1
       12161.113       119.14738       16.865508       1
       12183.464       117.06505       17.159302       1
       12205.815       126.93954       16.714843       1
       12228.167       108.96551       16.940499       1
       12250.518       123.59061       16.562298       1
       12272.869       147.07027       17.109180       1
       12295.220       116.53614       16.324210       1
       12317.571       128.10473       16.858498       1
       12339.922       126.33217       16.292245       1
       12362.274       116.80923       16.485708       1
       12384.625       123.76131       16.156017       1
       12406.976       133.49390       16.596993       1
       12429.327       130.53518       16.027750       1
       12451.678       133.60538       16.286037       1
       12474.029       142.23966       16.096814       1
       12496.381       141.08398       16.252172       1
       12518.732       128.44934       15.815791       1
       12541.083       133.06457       16.150594       1
       12563.434       120.00657       15.672514       1
       12585.785       121.26752       15.837522       1
       12608.136       124.37487       15.651365       1
       12630.488       121.51047       15.860470       1
       12652.839       130.01168       15.609532       1
       12675.190       112.69431       15.721912       1
       12697.541       131.05498       15.503848       1
       12719.892       105.34723       15.463780       1
       12742.244       113.90153       15.079808       1
       12764.595       128.49611       15.429313       1
       12786.946       123.08773       14.955783       1
       12809.297       116.60093       15.142820       1
       12831.648       102.83674       14.662788       1
       12853.999       116.45918       14.992714       1
       12876.351       123.71102       14.807629       1
       12898.702       117.80245       15.022978       1
       12921.053       114.99844       14.572602       1
       12943.404       116.08759       14.852797       1
       12965.755       117.74018       14.476349       1
       12988.106       121.76601       14.713146       1
       13010.458       127.05685       14.418087       1
       13032.809       111.51362       14.484381       1
       13055.160       107.79002       14.013670       1
       13077.511       131.50719       14.560278       1
       13099.862       123.65372       14.121854       1
       13122.213       119.73376       14.179122       1
       13144.565       107.31107       13.787596       1
       13166.916       121.28169       14.197445       1
       13189.267       120.11092       13.813221       1
       13211.618       119.21702       13.932822       1
       13233.969       116.50367       13.551249       1
       13256.320       112.45667       13.763542       1
       13278.672       129.33373       13.565658       1
       13301.023       116.42172       13.580462       1
       13323.374       130.76623       13.595473       1
       13345.725       112.73912       13.587024       1
       13368.076       115.95164       13.320617       1
       13390.427       120.14296       13.597991       1
       13412.779       115.70369       13.242497       1
       13435.130       117.85503       13.457620       1
       13457.481       115.40865       13.037656       1
       13479.832       113.35588       13.338321       1
       13502.183       114.61184       12.981940       1
       13524.535       117.20146       13.258651       1
       13546.886       110.52172       12.873795       1
       13569.237       120.97595       13.273538       1
       13591.588       105.12349       12.751406       1
       13613.939       111.44710       13.124697       1
       13636.290       111.67925       12.852107       1
       13658.642       116.86550       13.174520       1
       13680.993       121.34989       12.957254       1
       13703.344       118.87021       13.196527       1
       13725.695       124.21065       12.965549       1
       13748.046       111.82055       13.116849       1
       13770.397       113.35070       12.905441       1
       13792.749       123.94421       13.274641       1
       13815.100       117.49977       12.929078       1
       13837.451       112.12413       13.150461       1
       13859.802       115.93187       12.849304       1
       13882.153       96.004820       11.456738       1
       13904.504       118.90871       12.846353       1
       13926.856       126.39340       13.157721       1
       13949.207       107.67014       12.697785       1
       13971.558       109.01778       12.820950       1
       13993.909       134.12538       12.901075       1
       14016.260       123.18568       12.955270       1
       14038.611       113.80336       12.480006       1
       14060.963       119.48749       12.760175       1
       14083.314       117.44167       12.352033       1
       14105.665       108.84018       12.860507       1
       14128.016       123.02053       12.373399       1
       14150.367       131.17263       4695491.1       1
       14172.718       104.24105       12.225730       1
       14195.070       136.07088       12.828029       1
       14217.421       113.95830       12.153349       1
       14239.772       123.63031       12.644721       1
       14262.123       120.45674       12.234603       1
       14284.474       127.27483       12.547561       1
       14306.826       113.83459       12.089030       1
       14329.177       111.95017       12.319288       1
       14351.528       113.65897       12.021455       1
       14373.879       111.68060       12.298199       1
       14396.230       118.00547       12.016365       1
       14418.581       122.07066       12.298879       1
       14440.933       117.56940       12.021953       1
       14463.284       115.30347       12.304097       1
       14485.635       123.11719       12.089773       1
       14507.986       110.02871       12.141669       1
       14530.337       116.23446       12.048956       1
       14552.688       83.387947       10.602821       1
       14575.040       129.92977       12.084593       1
       14597.391       121.65000       12.350201       1
       14619.742       116.42396       11.977983       1
       14642.093       107.01479       12.194528       1
       14664.444       120.02910       11.961548       1
       14686.795       115.32248       12.216542       1
       14709.147       128.90481       11.999878       1
       14731.498       115.50189       12.248783       1
       14753.849       99.814213       11.836235       1
       14776.200       132.67523       12.445368       1
       14798.551       121.99030       12.063019       1
       14820.902       95.720530       13.808223       1
       14843.254       113.70154       11.915361       1
       14865.605       118.19042       12.131109       1
       14887.956       117.94349       11.944793       1
       14910.307       104.14775       11.944987       1
       14932.658       127.97637       11.998107       1
       14955.010       97.799035       11.827206       1
       14977.361       112.73552       11.752831       1
       14999.712       101.83356       11.812153       1
       15022.063       114.89186       11.697154       1
       15044.414       97.650172       11.738297       1
       15066.765       110.92981       11.576682       1
       15089.117       99.118380       11.739465       1
       15111.468       123.19547       11.652260       1
       15133.819       120.98739       11.933621       1
       15156.170       115.52601       11.598434       1
       15178.521       111.44929       11.835087       1
       15200.872       108.34472       11.497574       1
       15223.224       132.14514       12.026972       1
       15245.575       111.57560       11.572659       1
       15267.926       108.73581       11.758476       1
       15290.277       126.13889       11.692674       1
       15312.628       106.60005       11.723019       1
       15334.979       116.67330       11.628280       1
       15357.331       116.47736       11.831411       1
       15379.682       110.99440       11.551436       1
       15402.033       122.89507       11.923960       1
       15424.384       126.77818       11.731009       1
       15446.735       111.36168       11.761826       1
       15469.086       114.14906       11.629828       1
       15491.438       119.18602       11.861804       1
       15513.789       109.38213       11.575649       1
       15536.140       117.76737       11.925987       1
       15558.491       122.80886       11.667510       1
       15580.842       107.68405       11.724570       1
       15603.193       125.53748       11.730802       1
       15625.545       115.75051       11.874790       1
       15647.896       116.63746       11.611325       1
       15670.247       106.78313       11.738349       1
       15692.598       130.41605       11.741599       1
       15714.949       110.32458       11.600797       1
       15737.301       113.23455       11.446196       1
       15759.652       114.03427       11.620930       1
       15782.003       116.58168       11.451656       1
       15804.354       109.61114       11.675017       1
       15826.705       122.63064       11.536888       1
       15849.056       132.83073       11.866513       1
       15871.408       109.21519       11.471295       1
       15893.759       119.35639       11.718785       1
       15916.110       119.05736       11.546673       1
       15938.461       115.53262       11.733066       1
       15960.812       125.46216       11.601746       1
       15983.163       124.06442       11.850465       1
       16005.515       116.26381       11.564778       1
       16027.866       118.44911       11.757120       1
       16050.217       112.31365       11.566375       1
       16072.568       130.51958       11.903937       1
       16094.919       97.170562       11.316543       1
       16117.270       111.90796       11.745314       1
       16139.622       98.751696       11.418597       1
       16161.973       105.13989       11.704838       1
       16184.324       105.17603       11.503190       1
       16206.675       112.85479       11.871067       1
       16229.026       114.60118       11.638344       1
       16251.377       129.93024       12.136914       1
       16273.729       110.27051       11.839878       1
       16296.080       137.17722       12.301025       1
       16318.431       122.11925       11.925227       1
       16340.782       103.83294       11.936472       1
       16363.133       104.50184       11.841868       1
       16385.485       118.30354       12.168202       1
       16407.836       102.18821       11.758904       1
       16430.187       110.06660       12.060137       1
       16452.538       105.38201       11.843938       1
       16474.889       131.89061       12.400797       1
       16497.240       116.12391       12.145965       1
       16519.592       132.63367       12.652508       1
       16541.943       106.24144       12.514631       1
       16564.294       56.364197       9.4420604       1
       16586.645       106.90819       13.305110       1
       16608.996       110.95137       14.231134       1
       16631.347       138.25367       15.096910       1
       16653.699       124.30104       16.153923       1
       16676.050       78.738220       14.738101       1
       16698.401       130.98390       19.072004       1
       16720.752       73.007789       17.822730       1
       16743.103       105.83533       22.991445       1
       16765.454       112.06920       25.545280       0
       16787.806       148.13349       29.550911       0
       16810.157       115.98788       32.662959       0
       16832.508       128.31903       37.425594       0
       16854.859       87.866509       36.493351       0
       16877.210       117.00370       46.949568       0
       16899.561       179.83919       52.019314       0
       16921.913       129.19526       58.012677       0
       16944.264       120.70946       63.051600       0
       16966.615       92.927293       70.942745       0
       16988.966       87.430198       77.587445       0
       17011.317       93.743412       87.952461       0
       17033.668       50.057842       95.521558       0
       17056.020       40.886294       106.86636       0
       17078.371       80.157459       116.15736       0
       17100.722       161.24910       131.93025       0
       17123.073       111.48879       144.58623       0
       17145.424      -12.988671       164.48635       0
