#WAVELENGTH FLUX ERROR MASK
       7484.5072       23557.525       17342.300       0
       7496.2541       14711.118       18877.298       0
       7508.0011       5086.3480       12758.571       0
       7519.7481      -23028.197       13091.554       0
       7531.4950       703.56638       9242.8064       0
       7543.2420       3290.3838       9456.5664       0
       7554.9889       1185.6915       6121.5895       0
       7566.7359       11291.979       6137.4998       0
       7578.4828       3100.7036       4402.2820       0
       7590.2298       1545.3596       3961.5488       0
       7601.9768       1774.7529       2967.3374       0
       7613.7237       1535.5183       3519.7512       0
       7625.4707       450.55500       1954.1053       0
       7637.2176       394.58827       2108.0498       0
       7648.9646       2212.8011       1481.7139       0
       7660.7115       1715.4225       1568.9102       0
       7672.4585       315.44743       1174.0465       0
       7684.2054      -391.29663       1087.4349       0
       7695.9524       724.23848       749.04777       0
       7707.6994       256.66710       787.97779       0
       7719.4463       619.75450       561.61503       0
       7731.1933       1063.6363       621.70033       0
       7742.9402       71.598391       450.13402       0
       7754.6872       584.27840       517.07496       0
       7766.4341       27.342495       380.01641       0
       7778.1811       312.92375       441.07261       0
       7789.9281       311.41589       326.27088       0
       7801.6750       363.38933       370.98252       0
       7813.4220       286.91825       269.55726       0
       7825.1689      -47.173255       297.98834       0
       7836.9159       228.15690       218.26341       0
       7848.6628       62.158275       242.65112       0
       7860.4098       176.14171       178.89924       0
       7872.1568      -9.4629147       200.83806       0
       7883.9037       46.796034       168.41480       0
       7895.6507       50.634468       175.16604       0
       7907.3976       4.1415127       133.04964       0
       7919.1446       72.705094       155.78757       0
       7930.8915       41.041244       119.81685       0
       7942.6385       41.264954       141.46645       0
       7954.3855       126.03540       110.59570       0
       7966.1324      -87.216098       128.91108       0
       7977.8794       88.456659       101.31683       0
       7989.6263       222.04929       122.22852       0
       8001.3733      -5.6150614       94.070745       0
       8013.1202      -7.7737886       112.94329       0
       8024.8672       45.250916       89.346736       0
       8036.6141      -60.281740       106.76539       0
       8048.3611       54.933205       89.107921       0
       8060.1081       89.558034       104.00466       0
       8071.8550       86.072085       82.677941       0
       8083.6020       136.72091       102.41855       0
       8095.3489       19.338192       79.348178       0
       8107.0959       119.85418       97.857058       0
       8118.8428       116.71609       77.625353       0
       8130.5898       70.547865       94.062478       0
       8142.3368       75.095752       74.565144       0
       8154.0837       67.548873       91.259610       1
       8165.8307       98.825880       72.329191       1
       8177.5776       83.612397       87.928765       1
       8189.3246       121.86856       69.846774       1
       8201.0715       61.318543       84.716765       1
       8212.8185       76.338033       67.152170       1
       8224.5655       65.341752       81.082976       1
       8236.3124       144.09172       64.442308       1
       8248.0594       100.53675       77.545293       1
       8259.8063       99.307391       65.011377       1
       8271.5533       180.05822       74.763309       1
       8283.3002       70.665217       61.649934       1
       8295.0472       130.82215       70.880365       1
       8306.7942       65.631969       55.900893       1
       8318.5411       83.131771       67.849428       1
       8330.2881       84.948950       53.876897       1
       8342.0350       84.906216       65.679311       1
       8353.7820       113.68951       52.651019       1
       8365.5289       117.33571       64.415149       1
       8377.2759       99.432319       51.143451       1
       8389.0229       84.289720       62.379757       1
       8400.7698       99.199812       49.809798       1
       8412.5168       142.84419       68.095581       1
       8424.2637       44.262015       50.930847       1
       8436.0107       82.927073       58.916839       1
       8447.7576       91.872720       46.884349       1
       8459.5046       45.763191       56.830268       1
       8471.2515       102.31424       45.656324       1
       8482.9985       72.433545       55.288247       1
       8494.7455       72.526650       44.240714       1
       8506.4924       99.918675       54.618987       1
       8518.2394       100.21903       43.523243       1
       8529.9863       140.01094       53.773816       1
       8541.7333       97.800498       42.835684       1
       8553.4802       84.564481       52.378628       1
       8565.2272       136.85920       42.708043       1
       8576.9742       65.526870       51.849673       1
       8588.7211       122.69271       42.263565       1
       8600.4681       150.32950       52.716326       1
       8612.2150       117.14570       41.834846       1
       8623.9620       96.898542       51.593802       1
       8635.7089       123.99837       41.618460       1
       8647.4559       116.10341       51.592030       1
       8659.2029       152.82035       41.256445       1
       8670.9498       117.90200       50.408809       1
       8682.6968       74.831045       39.500076       1
       8694.4437       221.35368       59.888493       1
       8706.1907       120.02779       38.677779       1
       8717.9376       110.39555       57.084508       1
       8729.6846       130.31081       41.538048       1
       8741.4316       60.887399       44.722194       1
       8753.1785       74.918826       36.049397       1
       8764.9255       77.327624       43.742201       1
       8776.6724       79.857880       38.785968       1
       8788.4194       129.71038       43.853970       1
       8800.1663       91.607387       34.620573       1
       8811.9133       51.733949       42.150604       1
       8823.6603       62.460068       33.839098       1
       8835.4072       42.502661       41.220124       1
       8847.1542       104.90543       37.236632       1
       8858.9011       158.36625       41.993981       1
       8870.6481       96.868486       32.494702       1
       8882.3950       95.639880       39.695668       1
       8894.1420       98.495177       32.109979       1
       8905.8889       73.332042       39.171738       1
       8917.6359       101.57338       31.571629       1
       8929.3829       105.26866       38.982865       1
       8941.1298       95.173288       31.177637       1
       8952.8768       92.719664       38.189690       1
       8964.6237       104.26826       30.590359       1
       8976.3707       94.071989       37.488930       1
       8988.1176       108.94990       30.012619       1
       8999.8646       3.1731231       43.110296       1
       9011.6116       98.522791       29.614080       1
       9023.3585       112.84109       44.375739       1
       9035.1055       120.22372       29.541292       1
       9046.8524       98.291355       36.263001       1
       9058.5994       111.60956       29.309660       1
       9070.3463       133.70547       36.532539       1
       9082.0933       107.26967       28.969505       1
       9093.8403       88.965149       35.251232       1
       9105.5872       116.72540       28.387567       1
       9117.3342       88.083663       34.779109       1
       9129.0811       96.529700       27.739865       1
       9140.8281       75.624490       33.763205       1
       9152.5750       73.463095       26.925243       1
       9164.3220       74.088718       33.169631       1
       9176.0690       80.228958       26.541337       1
       9187.8159       93.697948       32.908048       1
       9199.5629       103.58319       26.342764       1
       9211.3098       87.121142       32.170674       1
       9223.0568       103.26805       25.859987       1
       9234.8037       46.693943       31.109490       1
       9246.5507       67.478358       25.356095       1
       9258.2977       102.07273       31.451506       1
       9270.0446       57.716541       27.867123       1
       9281.7916       94.941624       31.076470       1
       9293.5385       74.485303       24.908496       1
       9305.2855       88.805292       33.965875       1
       9317.0324       114.01616       26.203527       1
       9328.7794       91.878677       30.602699       1
       9340.5263       101.46486       24.550546       1
       9352.2733       89.076058       30.222288       1
       9364.0203       112.19886       24.546554       1
       9375.7672       94.311357       30.004967       1
       9387.5142       79.524772       23.971036       1
       9399.2611       97.052939       29.634186       1
       9411.0081       98.113308       23.819490       1
       9422.7550       81.310085       29.182137       1
       9434.5020       75.172915       23.337612       1
       9446.2490       143.11731       29.420349       1
       9457.9959       86.913510       24.513674       1
       9469.7429       104.81361       29.772547       1
       9481.4898       98.130569       24.357509       1
       9493.2368       98.722577       28.271494       1
       9504.9837       82.290802       22.670520       1
       9516.7307       103.39894       28.092960       1
       9528.4777       102.60518       22.572844       1
       9540.2246       124.51772       28.082258       1
       9551.9716       83.257360       22.171123       1
       9563.7185       104.12404       27.588538       1
       9575.4655       109.30354       22.147751       1
       9587.2124       100.20499       30.045884       1
       9598.9594       80.352537       21.598106       1
       9610.7064       90.287143       29.671119       1
       9622.4533       107.50464       21.681171       1
       9634.2003       85.269492       26.415353       1
       9645.9472       111.58612       21.473081       1
       9657.6942       95.918589       26.342382       1
       9669.4411       105.14345       21.270807       1
       9681.1881       91.769895       26.082267       1
       9692.9350       106.37446       21.111093       1
       9704.6820       68.227561       25.681433       1
       9716.4290       65.859985       20.641961       1
       9728.1759       76.892127       25.638722       1
       9739.9229       91.557209       21.045628       1
       9751.6698       88.641622       25.406790       1
       9763.4168       94.599079       20.427513       1
       9775.1637       68.867565       24.965652       1
       9786.9107       82.629044       20.253468       1
       9798.6577       93.349468       25.022848       1
       9810.4046       90.612737       20.162121       1
       9822.1516       93.080971       24.962371       1
       9833.8985       75.351239       19.951651       1
       9845.6455       75.802914       24.762998       1
       9857.3924       95.393169       20.043665       1
       9869.1394       89.726356       24.757130       1
       9880.8864       91.533115       19.926235       1
       9892.6333       98.982975       24.650536       1
       9904.3803       91.127518       19.881484       1
       9916.1272       140.86043       25.058457       1
       9927.8742       60.276652       19.538453       1
       9939.6211       110.91845       24.573932       1
       9951.3681       87.455238       19.438703       1
       9963.1151       85.604800       29.939845       1
       9974.8620       123.68949       19.594289       1
       9986.6090       55.997363       23.399232       1
       9998.3559       114.60986       21.436497       1
       10010.103       106.92362       23.715049       1
       10021.850       113.86080       19.023672       1
       10033.597       98.600522       23.363493       1
       10045.344       100.07741       22.976870       1
       10057.091       86.572823       28.230869       1
       10068.838       93.984912       20.946566       1
       10080.585       118.72010       23.545476       1
       10092.332       93.263807       18.718886       1
       10104.079       118.63207       23.478842       1
       10115.825       106.61430       18.776334       1
       10127.572       91.998823       22.964753       1
       10139.319       111.11328       18.624294       1
       10151.066       97.527048       22.890276       1
       10162.813       78.695267       18.302467       1
       10174.560       99.950871       22.766123       1
       10186.307       108.38136       18.365828       1
       10198.054       100.11942       24.678917       1
       10209.801       106.10888       18.587900       1
       10221.548       86.360766       22.341543       1
       10233.295       93.096620       18.283528       1
       10245.042       131.97023       22.613449       1
       10256.789       86.129480       17.794693       1
       10268.536       109.60508       22.144191       1
       10280.283       90.112665       17.672903       1
       10292.030       97.278830       21.792465       1
       10303.777       114.89838       17.589263       1
       10315.524       105.04604       21.702012       1
       10327.271       110.19430       17.485852       1
       10339.018       112.89035       21.652610       1
       10350.765       97.974369       17.359419       1
       10362.512       98.635265       25.934824       1
       10374.259       86.069832       19.159816       1
       10386.005       111.55764       25.931399       1
       10397.752       95.793595       17.271252       1
       10409.499       118.19179       21.580518       1
       10421.246       116.95609       17.394276       1
       10432.993       83.295565       21.077134       1
       10444.740       126.73338       17.322495       1
       10456.487       109.69117       21.239874       1
       10468.234       87.937059       16.981452       1
       10479.981       98.392580       21.041081       1
       10491.728       121.02222       17.408318       1
       10503.475       107.34850       21.199005       1
       10515.222       103.92933       18.067557       1
       10526.969       97.824311       23.937476       1
       10538.716       105.60466       17.128369       1
       10550.463       104.76020       23.954899       1
       10562.210       92.757048       16.942550       1
       10573.957       100.88174       21.083773       1
       10585.704       103.16769       16.993009       1
       10597.451       106.85797       21.063181       1
       10609.198       103.79561       16.930641       1
       10620.945       94.394561       20.817590       1
       10632.692       98.903891       16.729769       1
       10644.439       114.42170       20.705189       1
       10656.186       111.01120       17.605104       1
       10667.932       93.110494       22.737167       1
       10679.679       106.60036       16.473805       1
       10691.426       97.884565       20.292582       1
       10703.173       113.30348       16.406916       1
       10714.920       118.55737       20.513792       1
       10726.667       88.766860       16.204688       1
       10738.414       88.668121       20.122430       1
       10750.161       95.570378       16.275270       1
       10761.908       93.838866       20.106918       1
       10773.655       106.63313       16.288200       1
       10785.402       117.89450       22.695773       1
       10797.149       116.10386       17.421151       1
       10808.896       118.84780       20.242271       1
       10820.643       102.63015       16.182853       1
       10832.390       97.423047       19.926965       1
       10844.137       109.64610       16.133570       1
       10855.884       110.31714       20.060009       1
       10867.631       110.81329       17.027729       1
       10879.378       115.61119       22.207859       1
       10891.125       108.89687       15.972124       1
       10902.872       92.636429       19.594536       1
       10914.619       105.12747       16.023371       1
       10926.366       99.637450       19.622367       1
       10938.112       90.521095       16.663493       1
       10949.859       106.35495       19.741363       1
       10961.606       113.68013       16.803523       1
       10973.353       108.89296       19.722191       1
       10985.100       93.950053       15.836461       1
       10996.847       111.15698       19.677270       1
       11008.594       102.35069       15.825786       1
       11020.341       108.25277       19.677413       1
       11032.088       126.06418       16.935875       1
       11043.835       97.106331       19.556611       1
       11055.582       110.43617       15.798997       1
       11067.329       94.707673       19.437897       1
       11079.076       101.76673       15.700595       1
       11090.823       107.32737       19.507038       1
       11102.570       96.205263       15.674498       1
       11114.317       83.292437       19.354045       1
       11126.064       83.578478       15.634177       1
       11137.811       98.505540       19.429184       1
       11149.558       118.43122       15.855042       1
       11161.305       108.40669       19.499324       1
       11173.052       112.47550       15.791916       1
       11184.799       83.227486       19.728753       1
       11196.546       101.05755       15.762275       1
       11208.292       100.49575       19.824868       0
       11220.039       99.236656       15.655262       0
       11231.786       97.645107       19.326722       0
       11243.533       101.06794       15.629482       0
       11255.280       135.87393       19.697089       0
       11267.027       127.24560       15.902613       0
       11278.774       106.50388       19.502872       0
       11290.521       102.43778       15.705954       0
       11302.268       99.415418       19.362067       0
       11314.015       97.400019       15.623228       0
       11325.762       127.89080       19.771305       0
       11337.509       102.07872       16.059615       0
       11349.256       90.067505       20.384431       0
       11361.003       88.524596       17.041578       0
       11372.750       83.374389       22.090979       0
       11384.497       87.860999       19.093018       0
       11396.244       98.206849       25.462455       0
       11407.991       76.549109       22.280705       0
       11419.738       112.09647       31.035752       0
       11431.485       45.708893       27.474517       0
       11443.232       78.116760       38.574792       0
       11454.979       71.634883       35.236944       0
       11466.726       73.753891       49.189450       0
       11478.472       158.11329       44.923924       0
       11490.219       34.602352       60.411601       0
       11501.966       125.65247       56.852397       0
       11513.713       162.04812       74.794956       0
       11525.460       98.415381       69.077477       0
       11537.207       4.1583192       91.818482       0
       11548.954       38.602165       85.132017       0
       11560.701      -104.03464       122.18688       0
       11572.448       123.85171       119.95592       0
       11584.195      -193.53142       177.44111       0
       11595.942      -122.57754       178.82034       0
       11607.689       266.85302       339.61784       0
       11619.436       349.48562       305.87567       0
       11631.183       127.55250       405.20798       0
       11642.930       70.221684       391.63073       0
       11654.677       119.64952       711.75492       0
       11666.424       194.59617       567.82688       0
       11678.171      -146.70395       893.94204       0
       11689.918       456.73120       934.30361       0
       11701.665       1144.9758       1487.4933       0
