#WAVELENGTH FLUX ERROR MASK
       10205.405      -1778.5457       2710.8700       0
       10228.425       1246.8909       2701.9477       0
       10251.445       1104.1685       2255.5238       0
       10274.465      -181.98118       1988.6719       0
       10297.484       82.329213       1676.1039       0
       10320.504      -518.28723       1518.6659       0
       10343.524       406.13608       1329.4655       0
       10366.543       686.77803       1261.1981       0
       10389.563       391.14671       1109.3991       0
       10412.583       276.73410       1044.1184       0
       10435.603       412.74498       900.64604       0
       10458.622       201.72138       799.37523       0
       10481.642      -56.207450       650.53066       0
       10504.662       427.12004       575.18133       0
       10527.681       195.24385       472.18984       0
       10550.701       436.33999       427.32046       0
       10573.721       221.92862       356.68664       0
       10596.741       87.674301       325.20561       0
       10619.760       192.14166       287.13716       0
       10642.780       409.87434       265.84181       0
       10665.800       160.84124       230.18331       0
       10688.820       212.13028       207.42750       0
       10711.839       258.26377       174.05868       0
       10734.859       191.35999       148.38547       0
       10757.879       95.728963       119.51477       0
       10780.898       47.418395       92.147474       0
       10803.918       174.01253       85.269241       0
       10826.938       169.65699       75.659647       0
       10849.958       135.64501       64.831182       0
       10872.977       133.36219       60.426297       0
       10895.997       138.97304       54.211612       0
       10919.017       128.71050       51.407689       0
       10942.036       137.03293       46.942048       0
       10965.056       173.76409       45.716502       0
       10988.076       145.35959       41.240025       0
       11011.096       104.61116       39.120587       1
       11034.115       134.37371       35.933542       1
       11057.135       89.855642       34.261639       1
       11080.155       122.47454       31.957796       1
       11103.174       155.19348       31.648682       1
       11126.194       136.72393       29.616270       1
       11149.214       92.064133       29.061522       1
       11172.234       124.93063       28.024786       1
       11195.253       100.06715       28.106228       1
       11218.273       115.04585       27.183645       1
       11241.293       115.19484       27.533240       1
       11264.312       123.65324       26.653913       1
       11287.332       111.90803       26.994413       1
       11310.352       106.93884       26.200904       1
       11333.372       137.84116       26.829037       1
       11356.391       129.54793       25.694352       1
       11379.411       122.52601       26.250372       1
       11402.431       107.88702       25.154125       1
       11425.451       112.57866       25.674365       1
       11448.470       122.39799       25.031189       1
       11471.490       107.69950       25.194829       1
       11494.510       96.329221       24.555600       1
       11517.529       105.41603       25.076610       1
       11540.549       105.50706       24.584994       1
       11563.569       127.21261       25.107440       1
       11586.589       118.03761       24.463367       1
       11609.608       119.37400       24.849860       1
       11632.628       132.66899       24.266672       1
       11655.648       130.24600       24.488733       1
       11678.667       125.79820       23.642570       1
       11701.687       75.880228       21.380070       1
       11724.707       113.21025       22.985474       1
       11747.727       118.73976       23.185785       1
       11770.746       75.675504       20.110337       1
       11793.766       134.77689       23.055822       1
       11816.786       133.60557       22.203959       1
       11839.805       119.38384       22.520458       1
       11862.825       96.136455       19.450230       1
       11885.845       116.42163       22.139421       1
       11908.865       127.16514       21.337147       1
       11931.884       128.87126       21.990691       1
       11954.904       117.85290       21.102352       1
       11977.924       120.09620       21.618157       1
       12000.943       82.954112       18.848715       1
       12023.963       113.28968       21.417451       1
       12046.983       117.23473       20.461968       1
       12070.003       105.23700       20.877072       1
       12093.022       115.32164       20.276675       1
       12116.042       103.47177       20.615440       1
       12139.062       124.38381       20.178200       1
       12162.082       113.69900       20.438886       1
       12185.101       108.86375       19.781977       1
       12208.121       105.65017       20.188908       1
       12231.141       121.13513       19.706331       1
       12254.160       105.86547       19.966737       1
       12277.180       108.17136       19.299398       1
       12300.200       107.18528       19.800224       1
       12323.220       121.95284       19.303826       1
       12346.239       98.622025       19.543786       1
       12369.259       123.11624       19.075852       1
       12392.279       97.772190       19.299353       1
       12415.298       98.511136       18.709729       1
       12438.318       112.51537       19.342236       1
       12461.338       102.53465       18.650039       1
       12484.358       106.19814       19.085642       1
       12507.377       128.20652       18.747014       1
       12530.397       108.72207       18.957720       1
       12553.417       116.77727       18.481389       1
       12576.436       99.826639       18.851822       1
       12599.456       119.72708       18.488237       1
       12622.476       108.27461       18.855573       1
       12645.496       104.02497       18.118361       1
       12668.515       126.79408       18.950319       1
       12691.535       110.76807       18.138491       1
       12714.555       110.81357       18.574149       1
       12737.574       109.69110       17.888863       1
       12760.594       105.80587       18.220078       1
       12783.614       118.97529       17.732242       1
       12806.634       99.507287       17.963811       1
       12829.653       116.09311       17.560345       1
       12852.673       112.64122       17.945526       1
       12875.693       122.57092       17.509592       1
       12898.713       111.30447       17.838669       1
       12921.732       111.96309       17.350378       1
       12944.752       117.14855       17.745784       1
       12967.772       106.16685       17.085939       1
       12990.791       133.31908       17.671130       1
       13013.811       108.67360       16.814833       1
       13036.831       126.51344       17.367805       1
       13059.851       112.31270       16.796180       1
       13082.870       121.97184       17.172640       1
       13105.890       113.80452       16.683721       1
       13128.910       113.41854       16.953084       1
       13151.929       123.94594       16.485997       1
       13174.949       117.40216       16.832696       1
       13197.969       112.38321       16.216610       1
       13220.989       113.35401       16.655207       1
       13244.008       113.10408       16.060392       1
       13267.028       124.95255       16.654535       1
       13290.048       123.32439       16.106105       1
       13313.067       104.07613       16.347423       1
       13336.087       118.30211       15.887344       1
       13359.107       117.58154       16.519379       1
       13382.127       118.17952       15.881747       1
       13405.146       117.31181       16.375295       1
       13428.166       117.97163       15.736717       1
       13451.186       108.13457       16.137655       1
       13474.205       129.21154       15.596720       1
       13497.225       105.06935       15.878872       1
       13520.245       119.35723       15.443966       1
       13543.265       133.51860       16.138873       1
       13566.284       114.92748       15.447421       1
       13589.304       137.98981       16.159628       1
       13612.324       120.08623       15.475452       1
       13635.343       127.67930       16.106134       1
       13658.363       122.91682       15.466074       1
       13681.383       112.83468       15.984527       1
       13704.403       122.02584       15.565726       1
       13727.422       120.19497       16.057333       1
       13750.442       76.630303       13.883161       1
       13773.462       104.88093       15.866163       1
       13796.482       116.31439       15.419429       1
       13819.501       112.33005       15.980784       1
       13842.521       110.26783       15.381851       1
       13865.541       106.67356       15.855425       1
       13888.560       116.30350       15.418049       1
       13911.580       105.54050       15.865398       1
       13934.600       108.11867       15.212238       1
       13957.620       104.06134       15.715563       1
       13980.639       109.13398       15.069917       1
       14003.659       117.69844       15.681491       1
       14026.679       115.13380       15.051096       1
       14049.698       105.24938       15.440652       1
       14072.718       106.01287       14.892710       1
       14095.738       115.57143       15.435288       1
       14118.758       110.68155       14.713361       1
       14141.777       113.20648       15.188607       1
       14164.797       121.01634       14.788046       1
       14187.817       28.824908       11.715745       1
       14210.836       109.22697       14.619464       1
       14233.856       77.830794       13.609350       1
       14256.876       117.06313       14.625648       1
       14279.896       112.24169       15.123445       1
       14302.915       81.162770       13.070961       1
       14325.935       119.94820       14.982722       1
       14348.955       115.68892       14.413192       1
       14371.974       127.19057       14.940790       1
       14394.994       114.24906       14.305232       1
       14418.014       103.67099       14.783799       1
       14441.034       114.51609       14.467942       1
       14464.053       105.35708       14.759378       1
       14487.073       111.91638       14.349636       1
       14510.093       99.292200       14.647291       1
       14533.113       110.96092       14.393890       1
       14556.132       73.923998       13.449979       1
       14579.152       80.155630       13.255210       1
       14602.172       101.63137       14.742868       1
       14625.191       112.42163       14.382266       1
       14648.211       111.19195       14.765301       1
       14671.231       104.93978       14.356366       1
       14694.251       106.94703       3588655.0       1
       14717.270       101.97522       14.361199       1
       14740.290       110.60302       14.719601       1
       14763.310       102.55148       14.411389       1
       14786.329       102.30008       14.544260       1
       14809.349       98.680407       14.302731       1
       14832.369       100.16521       14.510222       1
       14855.389       109.42794       14.369411       1
       14878.408       97.201820       14.248628       1
       14901.428       103.97333       14.265105       1
       14924.448       100.66646       14.073857       1
       14947.467       109.28545       14.126938       1
       14970.487       100.45528       13.953584       1
       14993.507       104.32831       14.001354       1
       15016.527       90.869226       14.085078       1
       15039.546       102.35353       13.928190       1
       15062.566       99.553622       14.024394       1
       15085.586       107.82770       13.993347       1
       15108.605       100.70487       14.063017       1
       15131.625       108.49828       13.964635       1
       15154.645       102.95102       13.990037       1
       15177.665       92.368250       13.739695       1
       15200.684       103.51583       14.003560       1
       15223.704       111.67809       13.910429       1
       15246.724       96.023264       13.949519       1
       15269.744       94.702223       13.735220       1
       15292.763       98.791836       14.049645       1
       15315.783       85.437970       13.648063       1
       15338.803       108.03417       13.934991       1
       15361.822       100.35233       13.873081       1
       15384.842       98.461921       14.091212       1
       15407.862       101.90117       14.048836       1
       15430.882       109.07735       14.243033       1
       15453.901       113.02034       13.964510       1
       15476.921       81.843992       13.108117       1
       15499.941       122.93092       13.791518       1
       15522.960       110.95732       14.270477       1
       15545.980       108.56773       13.914074       1
       15569.000       94.559879       14.268474       1
       15592.020       91.114640       13.690744       1
       15615.039       98.921558       14.229585       1
       15638.059       109.98375       13.946350       1
       15661.079       94.607991       13.987651       1
       15684.098       100.58994       13.724507       1
       15707.118       101.10408       14.050563       1
       15730.138       114.90506       3764103.6       1
       15753.158       106.33138       14.067042       1
       15776.177       104.42673       13.742683       1
       15799.197       113.23043       14.127964       1
       15822.217       116.70608       13.786077       1
       15845.236       100.94810       14.012410       1
       15868.256       115.44832       13.691490       1
       15891.276       103.84868       14.000292       1
       15914.296       103.54815       13.718556       1
       15937.315       110.87111       14.075281       1
       15960.335       102.39577       13.693980       1
       15983.355       106.34469       14.036636       1
       16006.375       96.566806       13.474816       1
       16029.394       91.596554       13.954676       1
       16052.414       96.852898       13.574658       1
       16075.434       97.152564       13.994277       1
       16098.453       115.36443       13.643066       1
       16121.473       96.364408       13.857662       1
       16144.493       108.95652       13.563590       1
       16167.513       124.46664       14.334559       1
       16190.532       74.038754       12.217678       1
       16213.552       98.897109       14.196932       1
       16236.572       111.68785       13.866617       1
       16259.591       101.11611       14.312602       1
       16282.611       101.56467       13.530072       1
       16305.631       108.70323       14.441942       1
       16328.651       99.633863       13.649206       1
       16351.670       99.691713       14.353690       1
       16374.690       111.36693       14.097334       1
       16397.710       105.55684       14.507326       1
       16420.729       93.913394       13.998114       1
       16443.749       110.20838       14.553147       1
       16466.769       111.07248       14.257025       1
       16489.789       94.889456       14.671347       1
       16512.808       72.086383       13.221738       1
       16535.828       104.74720       15.402553       1
       16558.848       109.07552       15.654240       1
       16581.867       104.37064       16.743323       1
       16604.887       106.27953       17.301461       1
       16627.907       99.721134       18.848541       1
       16650.927       81.714210       19.651571       1
       16673.946       106.39122       22.401450       1
       16696.966       101.40797       24.136812       1
       16719.986       121.66605       27.781356       1
       16743.006       102.31280       30.400463       1
       16766.025       105.79839       35.309826       0
       16789.045       127.70167       39.470757       0
       16812.065       78.896343       45.349319       0
       16835.084       133.97285       50.535121       0
       16858.104       126.13407       57.723121       0
       16881.124       170.44561       63.369492       0
       16904.144       45.903228       71.504280       0
       16927.163       172.85690       79.033608       0
       16950.183       135.54332       89.844744       0
       16973.203       96.292422       97.188241       0
       16996.222       149.09425       112.28100       0
       17019.242       131.26161       120.82387       0
       17042.262       106.47009       137.49917       0
       17065.282       199.95204       148.62082       0
       17088.301       218.87619       170.37515       0
       17111.321       103.09631       184.66216       0
       17134.341       79.613705       219.52507       0
       17157.360       366.66357       247.75610       0
       17180.380      -65.460193       287.36240       0
       17203.400       242.77507       323.22978       0
       17226.420       195.56356       375.13175       0
       17249.439       394.01492       409.63960       0
       17272.459       226.93668       460.98664       0
       17295.479       268.94437       504.01938       0
       17318.498       162.23794       569.73638       0
       17341.518       563.44495       615.57141       0
       17364.538       415.29100       708.16651       0
