#WAVELENGTH FLUX ERROR MASK
       7498.9361       1710.7412       19055.053       0
       7511.2555       10473.673       12897.430       0
       7523.5749       2406.0315       13519.864       0
       7535.8943       9270.2236       9262.1518       0
       7548.2136       940.14905       9138.6898       0
       7560.5330      -1385.2087       5789.2580       0
       7572.8524      -3764.9353       5673.8065       0
       7585.1718      -2932.3280       3642.5778       0
       7597.4911       2432.7021       3761.9311       0
       7609.8105      -1060.0473       2522.1062       0
       7622.1299      -653.89216       2673.9074       0
       7634.4493      -913.89090       1860.9152       0
       7646.7686      -1543.2210       1966.8748       0
       7659.0880       414.96636       1384.5762       0
       7671.4074       10.558492       1414.0119       0
       7683.7268      -60.540402       945.93018       0
       7696.0461       3.4396537       980.20701       0
       7708.3655       408.05338       670.98929       0
       7720.6849       85.741689       720.73716       0
       7733.0043       260.59533       519.81817       0
       7745.3236       155.27313       578.68232       0
       7757.6430       188.11718       427.25120       0
       7769.9624       239.09081       490.31871       0
       7782.2818       190.14787       366.97655       0
       7794.6011       233.06713       411.80380       0
       7806.9205       277.06126       304.40655       0
       7819.2399       99.093407       333.69863       0
       7831.5593       35.737209       240.74112       0
       7843.8786      -109.03235       267.31167       0
       7856.1980       314.84100       197.04452       0
       7868.5174       266.57401       222.62589       0
       7880.8368       172.13659       164.26136       0
       7893.1561       320.96299       189.89637       0
       7905.4755       128.83800       142.25435       0
       7917.7949       123.62696       166.49021       0
       7930.1143       85.810591       159.01978       0
       7942.4336       137.31638       152.09363       0
       7954.7530       182.89100       116.23514       0
       7967.0724      -38.946554       137.66863       0
       7979.3918       141.48952       106.51703       0
       7991.7111       216.41995       132.25259       0
       8004.0305       187.37781       135.49950       0
       8016.3499       196.03495       119.66871       0
       8028.6693       223.94683       94.205288       0
       8040.9886       18.814824       112.36024       0
       8053.3080       204.07720       89.808131       0
       8065.6274       227.24533       110.13209       0
       8077.9468       279.97781       87.837193       0
       8090.2661       114.48784       105.06189       0
       8102.5855       124.03025       83.891977       0
       8114.9049       215.56770       102.55210       0
       8127.2243       237.47720       81.275751       0
       8139.5436       78.109084       97.648060       0
       8151.8630       155.53454       77.719519       1
       8164.1824       112.84148       94.569793       1
       8176.5018       155.05744       75.578792       1
       8188.8211       129.45071       91.937071       1
       8201.1405       123.32529       72.474829       1
       8213.4599       209.96982       88.220150       1
       8225.7793       151.90678       69.533831       1
       8238.0986       285.31811       85.385547       1
       8250.4180       201.58695       66.325314       1
       8262.7374       168.21799       80.137511       1
       8275.0567       164.05045       62.827765       1
       8287.3761       140.04585       75.656603       1
       8299.6955       140.19312       59.999668       1
       8312.0149       196.57083       73.521426       1
       8324.3342       165.51192       57.812379       1
       8336.6536       180.74373       70.604169       1
       8348.9730       137.58440       55.665746       1
       8361.2924       183.95526       68.816887       1
       8373.6117       167.01969       54.428314       1
       8385.9311       212.63859       67.062900       1
       8398.2505       137.03732       53.065171       1
       8410.5699       136.74228       64.754376       1
       8422.8892       180.79075       51.630995       1
       8435.2086       214.31908       68.172774       1
       8447.5280       153.04696       49.866458       1
       8459.8474       182.50405       63.786433       1
       8472.1667       228.91294       48.519464       1
       8484.4861       150.69617       52.214305       1
       8496.8055       144.13350       47.018242       1
       8509.1249       154.10129       57.486817       1
       8521.4442       167.99646       46.090589       1
       8533.7636       197.92489       57.179992       1
       8546.0830       132.36875       44.941156       1
       8558.4024       202.46989       55.938529       1
       8570.7217       189.48193       44.755216       1
       8583.0411       170.73964       55.071145       1
       8595.3605       146.82182       44.240894       1
       8607.6799       175.22668       54.832075       1
       8619.9992       187.92591       44.229173       1
       8632.3186       146.36631       54.166923       1
       8644.6380       161.08645       43.670881       1
       8656.9574       211.59582       54.246292       1
       8669.2767       180.82133       46.019113       1
       8681.5961       163.87514       54.640685       1
       8693.9155       173.49977       42.786096       1
       8706.2349       170.36956       51.143605       1
       8718.5542       150.48298       41.290740       1
       8730.8736       121.55657       48.715163       1
       8743.1930       188.47345       39.087826       1
       8755.5124       174.92377       47.694514       1
       8767.8317       169.06194       37.975293       1
       8780.1511       211.94713       47.027533       1
       8792.4705       157.07273       37.234181       1
       8804.7899       162.22223       45.779374       1
       8817.1092       189.63523       36.659498       1
       8829.4286       149.91789       44.863623       1
       8841.7480       172.47056       35.859422       1
       8854.0674       176.63161       44.008296       1
       8866.3867       146.10183       34.783141       1
       8878.7061       121.45864       42.491439       1
       8891.0255       184.03689       34.459589       1
       8903.3449       190.59576       42.197094       1
       8915.6642       133.12210       33.539013       1
       8927.9836       131.75405       41.423233       1
       8940.3030       194.72192       33.480181       1
       8952.6224       182.10921       41.125518       1
       8964.9417       153.56561       32.485964       1
       8977.2611       164.47274       40.084953       1
       8989.5805       218.82990       31.990836       1
       9001.8999       192.77913       39.615260       1
       9014.2192       172.68662       32.732240       1
       9026.5386       183.94846       38.987304       1
       9038.8580       207.27858       31.550159       1
       9051.1774       147.77958       38.561413       1
       9063.4967       136.45512       30.796786       1
       9075.8161       123.83092       38.033579       1
       9088.1355       155.92911       30.669935       1
       9100.4549       197.91777       40.050843       1
       9112.7742       146.33362       29.879086       1
       9125.0936       187.71453       39.168948       1
       9137.4130       168.34618       29.471946       1
       9149.7324       166.17095       36.335443       1
       9162.0517       174.22108       28.976364       1
       9174.3711       159.80795       35.584845       1
       9186.6905       160.41637       28.322629       1
       9199.0099       128.45789       34.656134       1
       9211.3292       195.27512       28.122543       1
       9223.6486       158.18472       34.195878       1
       9235.9680       160.29896       28.334342       1
       9248.2874       161.77286       33.770872       1
       9260.6067       176.75830       27.964988       1
       9272.9261       217.06738       33.623831       1
       9285.2455       168.84011       26.751161       1
       9297.5649       153.76776       32.529527       1
       9309.8842       175.86730       26.606036       1
       9322.2036       194.60364       32.587594       1
       9334.5230       152.54478       26.170922       1
       9346.8424       148.17426       32.093058       1
       9359.1617       152.38680       25.806233       1
       9371.4811       182.97343       32.105357       1
       9383.8005       147.32585       25.625442       1
       9396.1198       198.67396       32.051302       1
       9408.4392       167.22839       25.420189       1
       9420.7586       188.50320       31.483713       1
       9433.0780       161.77399       25.036346       1
       9445.3973       176.60729       30.970330       1
       9457.7167       171.25236       24.817167       1
       9470.0361       147.60504       30.318108       1
       9482.3555       145.55581       24.387397       1
       9494.6748       167.04299       30.039661       1
       9506.9942       154.42671       23.989747       1
       9519.3136       162.88362       29.807536       1
       9531.6330       184.78460       24.012137       1
       9543.9523       98.736309       25.889251       1
       9556.2717       168.54436       23.671825       1
       9568.5911       152.01043       29.975669       1
       9580.9105       167.88218       23.391552       1
       9593.2298       130.65488       28.526796       1
       9605.5492       176.98410       23.231505       1
       9617.8686       142.65250       28.424595       1
       9630.1880       159.93074       22.867601       1
       9642.5073       161.89202       28.382251       1
       9654.8267       156.66083       22.716140       1
       9667.1461       168.09780       28.090501       1
       9679.4655       162.11091       22.484018       1
       9691.7848       164.81419       27.728643       1
       9704.1042       172.79278       22.320392       1
       9716.4236       155.52537       27.435435       1
       9728.7430       194.26179       22.401604       1
       9741.0623       157.84113       27.218120       1
       9753.3817       165.95282       22.067311       1
       9765.7011       166.19345       27.026318       1
       9778.0205       160.52042       21.689366       1
       9790.3398       150.76483       26.585302       1
       9802.6592       142.34924       21.412072       1
       9814.9786       118.42863       23.433147       1
       9827.2980       164.71055       21.292305       1
       9839.6173       117.38846       25.951477       1
       9851.9367       146.01396       21.248616       1
       9864.2561       163.95673       26.385634       1
       9876.5755       159.84881       21.163315       1
       9888.8948       159.36873       26.350398       1
       9901.2142       166.25035       21.116872       1
       9913.5336       105.48107       22.022361       1
       9925.8530       168.54741       21.047709       1
       9938.1723       169.55261       26.125291       1
       9950.4917       164.28520       20.899973       1
       9962.8111       174.63880       26.052388       1
       9975.1305       150.38844       20.657679       1
       9987.4498       163.75416       25.734506       1
       9999.7692       156.22151       20.541381       1
       10012.089       166.50865       25.433043       1
       10024.408       171.62627       20.337449       1
       10036.727       139.82156       24.795550       1
       10049.047       183.10218       20.240943       1
       10061.366       163.42888       24.876885       1
       10073.685       167.00797       19.914384       1
       10086.005       151.70719       24.635903       1
       10098.324       144.92042       19.700919       1
       10110.644       147.81897       24.577650       1
       10122.963       172.30322       19.886292       1
       10135.282       165.06368       24.589161       1
       10147.602       176.74318       19.950497       1
       10159.921       179.12862       24.575200       1
       10172.240       158.79196       19.615729       1
       10184.560       165.46336       24.460785       1
       10196.879       172.29949       19.426839       1
       10209.199       181.42240       24.328405       1
       10221.518       163.64550       19.225522       1
       10233.837       189.61516       23.883636       1
       10246.157       154.27168       19.054613       1
       10258.476       163.92956       23.766658       1
       10270.795       162.05899       19.153343       1
       10283.115       175.93640       23.742114       1
       10295.434       168.26503       18.888881       1
       10307.754       185.57044       23.535760       1
       10320.073       150.57043       18.649383       1
       10332.392       75.604068       17.259515       1
       10344.712       145.06089       18.321043       1
       10357.031       161.01133       22.846061       1
       10369.350       145.77970       18.196755       1
       10381.670       151.33999       22.739529       1
       10393.989       187.05799       18.391028       1
       10406.309       147.46976       22.624859       1
       10418.628       138.31819       17.835815       1
       10430.947       155.01752       22.643518       1
       10443.267       167.48500       18.264920       1
       10455.586       185.52668       22.791981       1
       10467.905       169.11081       18.209611       1
       10480.225       160.13811       22.499005       1
       10492.544       167.51015       18.013128       1
       10504.864       162.21895       22.460568       1
       10517.183       161.02772       17.916497       1
       10529.502       167.05583       22.434241       1
       10541.822       164.22197       17.942219       1
       10554.141       160.19094       22.376788       1
       10566.460       153.30496       17.917804       1
       10578.780       146.31589       22.326053       1
       10591.099       144.58643       17.843627       1
       10603.419       149.36365       22.274999       1
       10615.738       162.97403       17.904468       1
       10628.057       155.50478       22.278128       1
       10640.377       151.51019       17.841109       1
       10652.696       149.76179       22.153078       1
       10665.015       162.71870       17.756259       1
       10677.335       167.18928       21.948198       1
       10689.654       152.05755       17.568516       1
       10701.974       165.79521       21.850380       1
       10714.293       161.95593       17.436937       1
       10726.612       158.58695       21.624716       1
       10738.932       163.91832       17.309378       1
       10751.251       170.57147       21.597125       1
       10763.570       156.80558       17.226013       1
       10775.890       179.12299       21.671661       1
       10788.209       150.36320       17.238138       1
       10800.529       171.32793       21.668448       1
       10812.848       145.47223       17.139815       1
       10825.167       148.11862       21.381237       1
       10837.487       159.42802       17.191021       1
       10849.806       167.96206       21.443996       1
       10862.125       159.74908       17.174138       1
       10874.445       152.45190       21.308135       1
       10886.764       168.73168       17.200961       1
       10899.084       171.55247       21.419784       1
       10911.403       155.35218       17.037194       1
       10923.722       154.54487       21.132705       1
       10936.042       156.91063       16.975946       1
       10948.361       147.88642       21.080119       1
       10960.680       183.79637       17.097432       1
       10973.000       140.88474       20.903907       1
       10985.319       165.71469       16.909951       1
       10997.639       163.78195       20.957642       1
       11009.958       155.73453       16.860791       1
       11022.277       177.84039       21.330393       1
       11034.597       165.86470       16.991607       1
       11046.916       146.05038       20.799550       1
       11059.235       172.94744       17.018467       1
       11071.555       162.99874       21.115456       1
       11083.874       154.14140       16.863481       1
       11096.194       167.18779       21.200043       1
       11108.513       178.58182       16.997071       1
       11120.832       188.21596       21.188500       1
       11133.152       167.91562       16.881070       1
       11145.471       148.27235       21.012946       1
       11157.790       176.99008       16.922848       1
       11170.110       162.12113       21.073797       1
       11182.429       173.50150       16.890141       1
       11194.749       169.23925       21.143234       1
       11207.068       164.51510       16.862284       0
       11219.387       147.87419       20.973291       0
       11231.707       160.48513       16.853425       0
       11244.026       159.15190       21.108647       0
       11256.345       184.06237       17.063026       0
       11268.665       168.54197       21.205589       0
       11280.984       135.59718       16.788346       0
       11293.304       155.06184       21.028725       0
       11305.623       151.00078       16.833400       0
       11317.942       148.28534       20.925570       0
       11330.262       148.45262       16.845178       0
       11342.581       121.03678       20.702841       0
       11354.900       161.10726       19.147334       0
       11367.220       163.16702       21.052635       0
       11379.539       167.68531       16.951555       0
       11391.859       150.59655       21.041949       0
       11404.178       130.41161       16.826985       0
       11416.497       163.35854       21.577762       0
       11428.817       151.57181       17.669329       0
       11441.136       153.43348       22.780992       0
       11453.455       126.76418       18.985658       0
       11465.775       118.88060       25.006184       0
       11478.094       134.07476       21.722427       0
       11490.414       94.703513       29.376177       0
       11502.733       108.24141       26.175831       0
       11515.052       113.41101       36.488821       0
       11527.372       130.30660       33.255608       0
       11539.691       106.81930       46.541591       0
       11552.010       137.14278       42.244736       0
       11564.330       100.55454       58.507190       0
       11576.649       111.35271       56.014111       0
       11588.969       173.07795       72.323515       0
       11601.288       121.11861       63.826859       0
       11613.607       95.264079       87.284868       0
       11625.927       109.25845       79.407245       0
       11638.246       222.00497       113.84512       0
       11650.565       42.148329       105.43247       0
       11662.885       57.023809       156.43432       0
       11675.204       155.76486       162.90713       0
       11687.524       170.98096       235.48025       0
       11699.843       310.08688       251.10677       0
       11712.162       257.96824       355.78791       0
       11724.482      -34.978291       488.36154       0
       11736.801       27.529541       516.90436       0
       11749.120      -331.33119       498.79260       0
       11761.440      -90.712214       756.08869       0
       11773.759       490.64034       775.63691       0
       11786.079      -1060.7960       1228.3263       0
       11798.398       107.19373       1279.9210       0
       11810.717      -287.01520       2046.3559       0
       11823.037      -108.03571       2156.5327       0
       11835.356       2123.3100       3391.2272       0
       11847.675       3394.4879       3099.0225       0
       11859.995      -1988.5555       3954.9694       0
       11872.314       3581.8316       3232.4777       0
       11884.634      -1549.9991       3870.6488       0
       11896.953       21.569474       3049.8656       0
       11909.272       1980.3210       3766.8872       0
       11921.592      -3963.0823       3163.1053       0
